timestamp,gyroscope.x,gyroscope.y,gyroscope.z,acceleration.x,acceleration.y,acceleration.z,gyroscope_filtered.x,gyroscope_filtered.y,gyroscope_filtered.z,acceleration_filtered.x,acceleration_filtered.y,acceleration_filtered.z
0,0.0,0.0,0.0,0.0,0.0,-9.81,0.0,0.0,0.0,0.0,0.0,-9.81
10000000,-0.024409833207748872,-0.04036413219438022,0.18130826684422868,0.009239114336419298,-0.0030282591800610964,-9.769728861780628,-0.005728743060959406,-0.03353981906449441,0.07868996945427052,0.01820966235348894,0.013788885620299906,-9.763623438029981
20000000,0.04799645664005828,-0.11575454937560112,0.754818268121813,-0.07634969181627273,0.12032632185521719,-9.961556340518134,0.032935483537541055,-0.10147994574042224,0.3762604217212073,-0.01212180921586236,0.059164893000771886,-9.84633533184044
30000000,0.0025355072567861993,-0.31723160858515853,1.261885033808826,-0.025403820056591128,-0.11844246091573211,-10.106138849357956,0.0364946842654958,-0.20921974428023227,0.8824876363004313,-0.0032500200395191646,-0.024872288626335004,-9.99279610333787
40000000,-0.010611973348729868,-0.4969771907853606,1.7643451664472543,-0.001113478685945267,-0.07220518438099009,-10.055739540533706,0.0009480710190133152,-0.3590430414846393,1.4168931631096893,-0.004168117434344209,-0.06163389211726847,-10.030793821075413
50000000,-0.08571216109512625,-0.7320400643528299,2.2677018164376563,0.07963795958845418,-0.0664121066314603,-10.183914463107103,-0.04436691356686055,-0.5629828329204634,1.9146165220556173,0.03438703096805783,-0.03241721333422017,-10.112684784589222
60000000,-0.0030125102336180792,-0.8859589058970092,2.6939577139197075,0.08229856958948242,-0.008087511144314167,-10.227337117993173,-0.049578058287440045,-0.777421462214503,2.3470539753037603,0.022705510744219615,-0.04126993117802107,-10.15660994910801
70000000,0.04860957190371249,-1.110719385445321,2.9992697833436694,-0.026579783497570536,0.030504570767394434,-10.307207302398293,0.021295445582884813,-0.9128769182394981,2.749385611081222,0.005897191725649439,-0.014812036063693601,-10.1838520249911
80000000,-0.09602238558699944,-1.0702314781610986,3.402999630733251,-0.0454502504319025,-0.0478008712854818,-10.190523082758684,0.0257449429770078,-1.0442719848417084,3.120502712874918,0.00449013874676861,0.0001340867630061594,-10.16644626185064
90000000,0.061354679186357564,-1.2750934730731949,3.7469948524036853,-0.013360834793798008,-0.028382695137861024,-10.224076534724704,0.017788374333390543,-1.1908160799248508,3.4656473897365787,0.008460027723335015,-0.027252871060926692,-10.179008951784741
99999999,0.06941852411167486,-1.3657646262508212,3.985383337990476,-0.09517835483835059,0.08131327270435677,-10.20117303273913,0.061741748294532,-1.3166635460361586,3.764946010578285,-0.04194890376583121,0.016116519972855927,-10.206898611116365
109999999,0.08931221258674343,-1.5024556743496533,4.193406274283679,0.0654306158356889,0.10697613575761944,-10.143944447271952,0.06920045588068342,-1.417623922264417,4.053659638956551,0.0074773436366833285,0.0660568720188094,-10.20509956507486
119999999,0.17073520294411831,-1.6048989322222094,4.51637166378764,0.019104752918515672,0.03769907923946024,-10.099683600771714,0.12424390602570706,-1.5180779145423537,4.322868012002781,-0.015402801482167872,0.11739160834091927,-10.187710296047348
129999999,0.26649160582299003,-1.6612368221751164,4.680992064542226,0.018016128417518443,-0.1131299956703264,-10.122137374479742,0.20005794892526102,-1.5920112697984257,4.556188541768567,0.038737452021578675,-0.0030217840308351465,-10.149065255491488
140000000,0.34121495408457364,-1.7019760320887005,4.847006761046318,-0.005048558238076298,-0.20069058487889357,-10.173821918367976,0.2856902003326824,-1.69159789868622,4.7280104116090005,0.005092218942026407,-0.07415095194001971,-10.149236022527816
150000000,0.5334884096709851,-1.6965393974814,4.952334493277718,-0.0015413059849136409,0.20569860302710974,-10.290165979906675,0.4288919467130761,-1.7407810525601013,4.856307936777581,-0.010080083368016225,0.01483564980647279,-10.193144366752335
160000000,0.5896478374797368,-1.7587770879252536,5.282450848962705,0.03624278624913601,2.7156228162300003e-05,-9.970118626642092,0.5073834172928159,-1.7617948882899066,5.058592841168004,0.031824767249505226,0.02293545980733534,-10.144840134266012
170000000,0.6610426202742877,-1.8042460573917687,5.366177078068555,0.128039389470496,0.00967398350169659,-10.094970054734057,0.575680820910281,-1.7930803927267482,5.2372447477080435,0.04072103347008722,-0.0055998737030858075,-10.115789810494313
180000000,0.7486487413695102,-1.7561187951807726,5.473304043687981,-0.019436235073652237,0.0436038067390634,-10.11317270126599,0.6490035588258533,-1.7943779538281457,5.344448988272556,0.02884488902777066,0.0183584931955567,-10.117612944165032
190000000,0.7628492329569403,-1.82105190123338,5.619607944406619,0.03413416079072296,-0.03078925210677213,-10.114642678668035,0.7254501041230401,-1.7752940427952195,5.471214143410453,0.04508135381313351,-0.03585805059018199,-10.100070184666114
200000000,0.9299656535486389,-1.8024732398352714,5.548584634270206,0.012682272507617842,0.14769849215022646,-10.183410475229463,0.8339258474952761,-1.7813193957173392,5.545847502281914,0.041973185499226386,0.036634236534883284,-10.120925416799661
210000000,1.1262260835301667,-1.7530874001767274,5.644537146296077,-0.06354269687474264,-0.05646769507360326,-10.213086176445751,0.967076691597121,-1.7408817150056306,5.614421679328243,-0.005023022449312818,-0.021510439470951485,-10.155647419647444
220000000,1.171006952903549,-1.6668079069543678,5.717774938802137,-0.029481623378517022,0.018291497994157635,-10.022822799963077,1.084244344824662,-1.7243686415600803,5.688513709438831,-0.042120422315281125,-0.037617259843944144,-10.105765867697846
230000000,1.3054632650303442,-1.5084490035665206,5.553526918760606,0.08186209846822308,0.02294827596119446,-10.131306080448704,1.2019655374630074,-1.6511166497309775,5.694307007005207,-0.01583979061939043,-0.02361503540363516,-10.08120853851595
240000000,1.4030783201936687,-1.4158038708478184,5.773844063591982,0.013578791580068882,-0.05529957007080142,-9.985023932867637,1.3035680887866743,-1.559490730056807,5.710492571154748,0.029560948111683763,-0.019427432329287925,-10.063262724938234
250000000,1.4879184016003069,-1.2248366557155759,5.655857556411477,-0.10762409746362532,0.025994146909568448,-10.081365442703603,1.3933590485067953,-1.4258854806558634,5.6793447507173624,-0.004940120114557332,-0.0344309640711971,-10.04031221379887
260000000,1.4398769774740807,-1.308865042464894,5.390411665614751,-0.004450268390982422,0.06717764806156058,-10.215209262211683,1.4570874773583595,-1.3677425749871674,5.557348178956708,-0.006394964365433064,0.04840882121335098,-10.092775815759069
270000000,1.5371776325539388,-1.2035035485201373,5.368953971622652,-0.04412413816533152,-0.03343034226163337,-10.184070231332816,1.5087052348475578,-1.293296724832416,5.449159910819468,0.0399046974394802,0.02999881572225231,-10.124916071505956
280000000,1.7011963185092966,-1.1047898124575848,5.2230158262299655,0.05536627289839795,0.049896754552613,-10.035816628158724,1.6078240218114117,-1.222796475782001,5.320996959071697,0.036858068825184956,0.032047295190494075,-10.058018400886205
290000000,1.6423143797786233,-1.0374125916347658,4.94517038252909,0.05257189516982635,-0.05737371381770421,-10.172675595167878,1.6508813737592363,-1.1003344741419923,5.125109734545077,-0.010760494080869577,0.007195994125595736,-10.129036744278093
300000000,1.693814509933317,-0.8909719321550285,4.748029821833229,0.09955274477948298,0.07693134708282946,-10.080019900920908,1.6869449164975747,-1.0004265416590645,4.9454455706131055,0.015280041476374786,0.04091639715105014,-10.109425598120719
310000000,1.7252392213939303,-0.8842166884972973,4.537340875419667,-0.0400110241954658,-0.0487582639282631,-10.078380940633387,1.718565645280563,-0.9085286188965651,4.731056240828899,-0.03305215045731381,0.0176438133081804,-10.092238909080447
320000000,1.975538994800941,-0.6751256236546496,4.313033074207541,0.02229967132163242,-0.01849671045965091,-10.146257780726572,1.8261767709154784,-0.7599163506006281,4.502090967728641,-0.0234602220995066,-0.01239874069773635,-10.080788462493654
330000000,2.0350622600210544,-0.6079582905187833,4.091010635636265,-0.06635419749207441,-0.03371936682977633,-10.163635443671794,1.9276977900397498,-0.6304140901167359,4.270932133510745,-0.008908654183426092,-0.019451593446266652,-10.14588015280452
340000000,1.9824938227270712,-0.4275251781670656,3.818887939462004,-0.019639050984425022,-0.10947338188870726,-10.260585116300431,1.986466376114397,-0.5373168913934342,4.012550904315752,-0.02201067346295237,-0.018692659192750403,-10.201746141494473
350000000,1.9540012275937941,-0.2971846295917816,3.6136383737522264,0.09713623043941012,-0.0749964015165487,-10.382978281552727,1.9635131596908426,-0.41395232194094805,3.779339131127206,0.00011093696253915847,-0.01728006998910071,-10.231445292461066
360000000,1.971756945127102,-0.29235301884220566,3.313479999018614,-0.007358589768096141,0.02715627771101456,-10.111712418268276,1.9738079119141578,-0.2962319777597475,3.5069879767784613,0.0009830567043795791,0.04670581974119728,-10.193001506718954
370000000,1.9483099763081875,-0.040012826351837505,2.9959320672768803,-0.08758913121467583,0.05545039368128535,-10.097141282693524,1.9630256811355733,-0.19905920537689348,3.247596241487582,-0.00943986041777642,0.04579644531619104,-10.155765292338508
380000000,1.910128397536945,-0.16384238005213247,2.780174328503598,-0.1432782176917239,0.3046697025363262,-10.334368007752426,1.9352844146351842,-0.1480156929563538,2.977225418956505,-0.051802698774498016,0.12734002153932816,-10.247006864636367
390000000,1.900197956419731,0.03761282277177537,2.527395007328081,-0.06297557583419806,-0.017881464423512114,-10.104398345786466,1.9229250930904738,-0.07403828399452915,2.7338749594571077,-0.05823776017761488,0.09935556754750964,-10.213719413207471
400000000,1.8254326502243108,0.0594641328619769,2.130796132565083,-0.03762065408142359,0.05714352025861566,-10.17940858220955,1.8659072641107095,0.012677390465324848,2.418964470861669,-0.060096924252766665,0.05629513545507936,-10.177464334266828
410000000,1.7297480041774933,0.08250013402557582,1.9204035448734031,0.021805011511338616,0.08672993898645899,-10.089071181596916,1.8143816856553316,0.08990673817557031,2.1104645161309366,-0.02136916293719032,0.029170970480233278,-10.150569436687487
420000000,1.6804355795948411,0.19686270171753326,1.773331744156099,-0.06226262167534378,-0.022947799522049485,-10.20613314940426,1.741570485129976,0.12594763661818115,1.8659005426233193,-0.04788695998928395,0.013220082430423757,-10.18132702648146
430000000,1.6618087218933533,0.22560099216139645,1.41243770759546,-0.09882072805123818,0.004936040653016255,-10.402862893579025,1.6560114737799028,0.21090585068918377,1.612553414112877,-0.03545451199948603,0.011195415527313048,-10.271043224027526
440000000,1.6543024873981567,0.2520785386604779,1.2214091661857074,-0.0747948071249321,-0.02373447337085128,-10.141659267162787,1.6308745764039596,0.2470246151989514,1.3928638892627672,-0.04777655674109148,0.01774879387088221,-10.250457763017346
450000000,1.5621821274099446,0.2945043720634361,0.9008313951633915,0.08908331808572963,0.04909988658300442,-10.178961551672696,1.6192844172541172,0.2708051531756171,1.1446357321542187,-0.01296538860301975,0.04538459506250886,-10.216391135984466
460000000,1.5028799445169079,0.3023128408271903,0.739328909463058,-0.08897415706318548,0.08077182380143469,-10.19904718975462,1.556743825728077,0.3005443126228337,0.8944111332352851,-0.07045195103294677,0.09330177878779455,-10.23063816979542
470000000,1.3147384461020128,0.3145855394043263,0.4888098428642403,-0.07429521078762562,0.013417269373422788,-10.261918989550242,1.4286911610309192,0.3263398888428688,0.6745437738129694,-0.07603928178243596,0.037526456601082836,-10.2413751394858
480000000,1.304925097881134,0.3516461723779819,0.32922929468132933,-0.24395541481929217,0.13606173724774104,-10.235693429444193,1.3470949238581496,0.34035315048451176,0.4866742247872559,-0.08909645862456211,0.09606137797249631,-10.286025397951542
490000000,1.2052768010872699,0.3222656631170284,0.1472166795456805,-0.044992570233033394,-0.11272057646594533,-10.22265109270909,1.2583958545529326,0.3396012179264388,0.2996685261828069,-0.06954267711325274,0.020547235858563065,-10.299904077951654
500000000,1.0257468664710527,0.36341858544315125,0.02252289096705897,-0.09459193501281492,0.009852768518404489,-10.369871090109864,1.155528305470717,0.3221890392877274,0.12382999725317655,-0.07529393180045564,0.046992806183535116,-10.321967360552343
510000000,1.0323097067845415,0.25243916769677566,-0.26934621960929805,-0.13435835713053798,0.04386631182922649,-10.23604252507357,1.0343031028286134,0.30192602329113194,-0.08394241406852926,-0.09329565435482703,0.050692125144197984,-10.294677724186894
520000000,0.7988319766384233,0.26213939330356195,-0.2906146374852083,-0.1326131110869032,0.0416508725903616,-10.351009879051576,0.9266983756161701,0.27010332965743655,-0.2449634792827858,-0.12111655772190691,0.05282523823311748,-10.296776268455769
530000000,0.6697888459851937,0.1502766466805402,-0.45004923977733674,-0.04513525859859465,0.057359981031297025,-10.198914739765966,0.787241546876008,0.2257575667602806,-0.3568291959035695,-0.09655994196669036,0.06512234191836219,-10.253762366080327
540000000,0.6684337073792442,0.2660048780431193,-0.5706300091215711,-0.06018175095286495,0.07534780430766047,-10.201494248803337,0.7333783089315626,0.21661393938216045,-0.49870925560690516,-0.08753226476420853,0.056662844905124694,-10.270514729367742
550000000,0.558429071734985,0.19142392898667782,-0.7449532956835769,-0.0807031027493518,0.03626395765047825,-10.31233861438699,0.6327746745990075,0.1988666913209073,-0.6603882072991459,-0.1683975765894287,0.05786314144536957,-10.300593993017504
560000000,0.4677818847751756,0.20485740761157153,-0.894096848782837,-0.13389047718362346,0.23663095106503082,-10.293266536760248,0.5697865275520277,0.19634474917655803,-0.7773537224467835,-0.12444443944850538,0.10429654104442505,-10.24857946183904
570000000,0.3493057980771341,0.08823341090967884,-0.9452574046492135,-0.1882342187461588,0.09225538940360026,-10.282254247704358,0.4407163613855642,0.16179458692075885,-0.8457749444683316,-0.12727475076240433,0.09329279180761388,-10.295594179435223
580000000,0.1834571362657357,-0.011464282661828223,-0.9209648566326312,-0.11728342777280834,-0.09107075806568717,-10.248280740208836,0.32683057330604165,0.11996690242127481,-0.9018130521389599,-0.12041778928398539,0.021395488047233395,-10.245642503297498
590000000,0.08640360140974812,0.03233516501607239,-1.02524885310349,-0.13452503047953537,-0.008318271550466327,-10.263124037678613,0.186893591679703,0.07945723651523572,-0.9667582768776568,-0.14189347293545074,-0.01043070700194704,-10.278235363604391
600000000,0.012045478990275173,0.020190119108132332,-1.0405591162192611,-0.04771713488717205,-0.08240533113742356,-10.147516693160034,0.060853227342360414,0.05623574095346965,-1.0270437159883408,-0.13107972056369402,-0.033415951860241794,-10.273297147326351
610000000,-0.13213605725359792,0.0015459831402837828,-1.181381275013186,-0.10199935536321769,0.0482845551201549,-10.253698506398392,-0.039728658151042165,0.01797162765228375,-1.0967740193874629,-0.06726100164827047,0.010986827729827993,-10.230566817904581
620000000,-0.14730581040302204,0.044632021720341676,-1.1490391858240987,-0.1387657363164639,0.030747553020011177,-10.248097539021412,-0.1522243153451468,0.029262415202674648,-1.1248426479919384,-0.08381612082713666,0.017822201437362576,-10.245131389560793
630000000,-0.37962113928878555,0.017228801330999046,-1.162112182774137,-0.1695537711318755,-0.019879293856980423,-10.047528848657276,-0.28497306336289685,0.015655863170567705,-1.1408800170865825,-0.10431925609061822,0.006687868714781252,-10.208329082355641
640000000,-0.5115348919829015,-0.07952286991700422,-1.078058199882801,-0.30782893948032686,0.025921230672704056,-10.255147673366217,-0.3846672066422414,-0.031068100980046528,-1.1198031054833169,-0.16674486650653966,0.06909829230922193,-10.202094458684192
650000000,-0.4850410069610049,-0.07846991553716631,-1.1370960593844088,-0.1350049823969912,-0.03064874372947105,-10.289445589702302,-0.4684220040962267,-0.07848235206075804,-1.1312794135975137,-0.18081364519263482,0.01747491624394559,-10.226234078351983
660000000,-0.5917750706819506,-0.0926479483669654,-1.1076429844556335,-0.15012418233449235,-0.043641874868960075,-10.20126008688887,-0.5125444099591343,-0.08811696200843618,-1.1237707689673218,-0.16919149546185086,-0.032832186203300216,-10.227067106718675
670000000,-0.7527184207568285,-0.2304771702093814,-1.0280228386588146,-0.17855919646147575,0.07432139794431951,-10.168330256741498,-0.638421734057316,-0.13052261634910353,-1.0930376159433337,-0.15321624136521655,-0.019589260811635867,-10.220247979443766
680000000,-0.6838868882132301,-0.20191054077638165,-1.0741873026855904,-0.15420679920374053,0.02508653536816007,-10.184482308137673,-0.6914675034595844,-0.12807663165479063,-1.0597385659547245,-0.17167273709738617,0.04929087139487294,-10.180234879426443
690000000,-0.7481603930710715,-0.14273329168436322,-0.8927349645938419,-0.29941369483614266,-0.3215274458387937,-10.31566783087878,-0.7346505875123279,-0.12235960183375541,-1.0091032657240444,-0.21401314350766268,-0.06908090002102243,-10.222328917511646
700000000,-0.9605380724192861,-0.05564616099516166,-1.0635700644748782,-0.22137955237646736,-0.039373460397703154,-10.329008712615492,-0.8697256813404641,-0.10689090001511577,-0.9986605618009067,-0.18176530115038383,-0.09309523255166831,-10.251726745431187
710000000,-1.0083656982314813,-0.10660571892220841,-0.9013296372348714,-0.047948509667631894,-0.03828966760359654,-10.215487094134286,-0.9632440389118806,-0.10904778310605495,-0.9699056520558816,-0.19832842841073348,-0.05023641983617402,-10.255281582415737
720000000,-0.9741613340307201,-0.11943651751962867,-0.7914707408128241,-0.28129951458035796,0.025412346019608553,-10.251147989533187,-0.9883925673396518,-0.07710242850532746,-0.8707532309006941,-0.2430458885120017,-0.001180614681744921,-10.263086904550992
730000000,-1.0524834294608663,-0.07232361369182802,-0.7557879506782729,-0.2844907619435648,-0.10973133178581759,-10.338850184601958,-1.042904944839043,-0.07310686642394548,-0.78366600628367,-0.2728154421738569,-0.039527869094573724,-10.2735385915509
740000000,-1.044587947981761,-0.13183970756048127,-0.7279618700762618,-0.26881633255358367,0.09622252875904189,-10.260708491813801,-1.051171962431973,-0.05559296130546638,-0.7217183640054458,-0.261348634587533,-0.04769788667210335,-10.264408470085558
750000000,-1.1113599661954214,-0.0058008219852258985,-0.627083604153331,-0.23703952722102029,0.05761669999351848,-10.224315487799657,-1.0759826238946475,-0.04456059163569988,-0.664477472609471,-0.21761969706936443,-0.05043047166375801,-10.246350045591612
760000000,-1.099449317812107,-0.060614385587923134,-0.622525008306458,-0.3011026888958633,-0.15626342824047623,-10.26734892811269,-1.1248205432449319,-0.06838832733892487,-0.6611364590442649,-0.20061120937933613,-0.04946013792078549,-10.253107514681927
770000000,-1.1671838085219124,-0.07716464776203441,-0.5687672056920812,-0.190933635504402,-0.06523980812734263,-10.209118245183847,-1.152573358808448,-0.09203665247897659,-0.6062832694598832,-0.20480989141666872,-0.08745506705775816,-10.243889608574012
780000000,-1.2128321893948193,0.0039050041039400407,-0.4296296162407647,-0.3441560921226531,-0.15579932716683872,-10.343564256073611,-1.1610576225720237,-0.054682051816419476,-0.5078134836386752,-0.2644145121225611,-0.10021427884572809,-10.27544923253787
790000000,-1.1544963939361779,0.06745394287594628,-0.4050910819115251,-0.29067973676701736,-0.11482196398948724,-10.187727629959648,-1.1711183777996936,-0.018442539044986318,-0.4705482250526968,-0.25546375408862104,-0.13743501147582685,-10.254612306905472
800000000,-1.1852735694953214,-0.11193168617621288,-0.1926395913425063,-0.3052867657719309,-0.08243218088089771,-10.382924266981405,-1.1981208285890275,-0.0746793382469738,-0.32175616779923244,-0.255471388959331,-0.08271043856043815,-10.294968770725099
810000000,-1.2232230929120589,-0.2425402308938131,-0.29841878123056814,-0.21788529580823374,0.013437894723684021,-10.23216447709509,-1.2101737211944745,-0.10620124726965588,-0.2765764388920069,-0.25498323486632246,-0.043888918850872094,-10.24446882050672
820000000,-1.2101725050377397,-0.1561811678356569,-0.2884881250967123,-0.44289678480552674,-0.015567615863822819,-10.251630537933943,-1.2148590949585478,-0.14863212384915253,-0.25336747335030874,-0.30427750804356873,-0.016030445762549698,-10.254049233745764
830000000,-1.1634974253681762,-0.05966434715627736,-0.22926962367117265,-0.2679434950688882,-0.00933896526865409,-10.230486718321746,-1.1719836604497849,-0.10524890715125709,-0.25572270589084306,-0.3074150486959938,-0.014850118677539634,-10.280256065303709
840000000,-1.1181413776380453,-0.03066367401267034,-0.07395028222602205,-0.2905215782752941,0.02811143625010932,-10.20700463594506,-1.148989658618201,-0.0670704391420958,-0.18360382697792996,-0.34181487302606606,0.019106410594059296,-10.26067261998196
850000000,-1.1593025304779454,-0.0409079078363371,-0.0894647395100569,-0.3861279835057956,-0.017109711299246433,-10.225134979081687,-1.1362482629104131,-0.014423324734482507,-0.09583361886999496,-0.31792920593729834,0.023218091828068183,-10.20577280853121
860000000,-1.046810993432365,-0.07783337150973937,-0.04439324973538701,-0.30697009577486944,-0.05595109049247419,-10.376195320803335,-1.080765054774252,-0.015486803193113267,-0.045370631258985196,-0.35721491882582834,-0.06692701465751992,-10.2545435577621
870000000,-0.9618573471765647,-0.12139704491853631,0.035059538145651256,-0.3680973531760424,0.057870845849732414,-10.145092192353479,-1.0228047557230835,-0.05271549313576643,0.001756122372728609,-0.3461256384494813,-0.07072796529161596,-10.238310549270023
880000000,-0.9364081930660298,-0.15662057140331853,0.14150399432634014,-0.48860996579381166,-0.030213006380747337,-10.244794377847793,-0.9992124257827235,-0.07266412236344223,0.06914251660200349,-0.42958617201811883,-0.06679732363025229,-10.250603071640306
890000000,-0.9518605157096125,-0.016918464130762416,0.18159908916872666,-0.4530943950319263,-0.0719852911150555,-10.321192167962018,-0.9518042095472085,-0.06029702805821908,0.10318563681645039,-0.42732753301607146,-0.09816794332174361,-10.258882002565777
900000000,-0.8440690767697264,-0.0472268106193524,0.16204038343227253,-0.3816089195726274,-0.02985601002326521,-10.3330938065214,-0.863035033181128,-0.060224281910474006,0.14360019497749885,-0.3818580628927767,-0.07782109841746006,-10.258480341533781
910000000,-0.8704216570229611,-0.03171647123984105,0.19378653810827937,-0.4364383599672347,-0.026319054267442382,-10.16522991716378,-0.8189836172517448,-0.060679689085330925,0.17073996883589082,-0.39709179957022767,-0.08662699832781347,-10.231344066269878
920000000,-0.7482239038224607,-0.019122105573754603,0.2921690900588274,-0.40242361388075387,-0.21680681559717435,-10.279505788820597,-0.7963351008694968,-0.015447442904117452,0.24451020445717553,-0.40368667085578375,-0.12887142630167384,-10.20675818877001
930000000,-0.7540115269752898,-0.11649626563511682,0.21689416481403592,-0.383969090131459,-0.07692727749769776,-10.272523372310316,-0.7624476981795963,-0.03420233686856641,0.25995130402538924,-0.4180572102153618,-0.09127030305905516,-10.249212467331647
940000000,-0.5780625481647768,-0.07761435124876269,0.1883558882189883,-0.4154429176279393,-0.019278523339208917,-10.175602440625322,-0.6791088026049201,-0.06758317224665679,0.2237360998587519,-0.38257013801039574,-0.0918427719754214,-10.240692036724834
950000000,-0.6692491556996643,0.005582438963549759,0.31713096784839934,-0.34362458145421343,-0.09228840795543405,-10.086025125978665,-0.6285068521323689,-0.03698333328189461,0.2405508049242463,-0.38053892875481954,-0.06354194392171958,-10.165039949404532
960000000,-0.5450554602174076,-0.07814603201475928,0.27236899384765073,-0.36763157890414744,0.05295029826732313,-10.307092374287626,-0.589294988472046,-0.053165783644473094,0.28827453396117564,-0.3879976786443499,-0.07697302582447806,-10.208091624855046
970000000,-0.5528024450331128,0.0014363816788354293,0.22643642090472754,-0.42006402473311943,-0.21290878570402597,-10.141801836429362,-0.5389384954195159,-0.00934545080994965,0.2985454130277859,-0.37659726204263155,-0.1409390912612791,-10.200732869414532
980000000,-0.38303374301727977,-0.06456495497316511,0.29592594360901764,-0.47243579627363247,-0.220601351011818,-10.193549972176054,-0.4536466499127835,-0.003523747734360056,0.3309625630514009,-0.43989382687829315,-0.14866214111130074,-10.148819256029352
990000000,-0.38575187008767703,0.08664431609837651,0.4723232860620287,-0.3198165009448909,0.027920272923137833,-10.154010658348898,-0.41283747755678596,0.012633805055037544,0.37704940852100793,-0.401473074975066,-0.05585920207316665,-10.159843581918883
1000000000,-0.35779229905427307,0.05307681886836138,0.2650811554376112,-0.42192929352648634,-0.13289099573452928,-10.08670144176241,-0.3618131086475876,0.026060906848952688,0.35675156778643485,-0.409269270184623,-0.0650036122623627,-10.165928534122779
1010000000,-0.2471003303900911,0.1723551401145933,0.3519468073839269,-0.5236997699514417,-0.10711658458268286,-10.041378912441894,-0.27779056894816445,0.09557698654511615,0.32565229361089065,-0.4508764485489321,-0.08656079149784346,-10.064026942537108
1020000000,-0.16190393962806995,0.10037817715796928,0.33502633863210207,-0.40707087717099766,-0.15241408131423137,-10.131304268194457,-0.19213856074124053,0.12167623072455314,0.3183617714805256,-0.4493808502875233,-0.0934071615180481,-10.07134688396042
1030000000,-0.07063736869535808,0.26936109376737194,0.34677708150284836,-0.5502321849557692,-0.0985995632829641,-10.0450447424405,-0.13105896930341926,0.19222269179634285,0.36375274556893666,-0.4821826649459463,-0.08777266564404598,-10.061434721847181
1040000000,0.03717002315667183,0.15980138015081768,0.3276923534776209,-0.6101476967672195,-0.10392135991522337,-10.038654858397313,-0.05784961942151235,0.20237853641259845,0.35803517274732904,-0.540208641195718,-0.09684295948327759,-10.017433537772996
1050000000,-0.09060034025304041,0.25665029621971414,0.30511138515507313,-0.6242783513430245,-0.1657271314738605,-10.053440152277123,-0.04369755273975366,0.22886574625419487,0.32585457025367714,-0.5545189487103039,-0.10903535528383179,-10.0611953887602
1060000000,-0.024079063465963807,0.2656076590131496,0.3395057614210629,-0.5358364480801803,-0.03256489866819653,-9.905903518739994,-0.022572666105121764,0.26824019237130214,0.3255501842130401,-0.561341508652644,-0.08135850333293916,-10.052891856574272
1070000000,0.08139226388569859,0.3401262081230484,0.3143807018127018,-0.6484970572836063,-0.048471990106572216,-9.989334930706594,0.015075633088512917,0.31666123043233285,0.3249022935273491,-0.5816796994217162,-0.08111130139305373,-10.003472304128406
1080000000,0.16840795193620337,0.3963038544399597,0.281165962787589,-0.46000848632486663,-0.024566039996589482,-9.918906326424738,0.08767250914502597,0.35774857829430007,0.29476782190225936,-0.5240380521422842,-0.07064053586408123,-10.001991579231435
1090000000,0.1852896638186311,0.43265558765559226,0.3096397046509146,-0.49925191672621777,-0.07611385830919713,-9.950102314297974,0.1626329567890575,0.3869761921927183,0.28321939309557914,-0.5008397410337364,-0.06126180427769594,-9.991033737505195
1100000000,0.21741701370212946,0.43662811658636175,0.2797408858790575,-0.5465726161181301,-0.11718308601286578,-9.77653358873525,0.22450274323442454,0.41631517095154025,0.27837369743666546,-0.5162680381568883,-0.08124521802607268,-9.876446507545477
1110000000,0.30038257499154686,0.5221580292514061,0.2602523230647578,-0.5017739489438238,-0.05587893407059522,-9.907347893941772,0.2848681877142105,0.46193925797467544,0.3002428796708816,-0.5280293812260282,-0.03773171521651865,-9.907195840185333
1120000000,0.3309774871190316,0.5685201753587649,0.20805155774476528,-0.5296652077899173,-0.023390773436930357,-9.995064614222745,0.3161044417440446,0.5281758217870967,0.26393742732060294,-0.544692807953117,-0.04660195309615467,-9.947575377344174
1130000000,0.3821169398398427,0.589208858502548,0.2557926911166538,-0.6849494310192398,0.05565320294886982,-9.948780515448375,0.36813081370422795,0.5616732868114727,0.26473537768268884,-0.5858096509054252,0.0051070508955631914,-9.981645873699819
1140000000,0.38203616017494746,0.6604417736116084,0.21409662052064987,-0.6469687521899596,0.07103315670712786,-9.976054267334103,0.375967593160672,0.5945597070152752,0.23537938973087905,-0.6269483629102466,0.01836778906712022,-9.967808287734623
1150000000,0.41740570463819154,0.6118163156975552,0.13223886587944006,-0.6219296521437846,0.035696080444263055,-9.825009495133305,0.40655354636247204,0.5828249998655837,0.19845870012275674,-0.6389266530954808,0.051599060521763884,-9.877403835152755
1160000000,0.49562306087977737,0.6438237319553873,0.23581629503294332,-0.6040062011131822,-0.1265440176408128,-9.949120842368034,0.4478083750964338,0.6106712419243362,0.1938946085518383,-0.6169779791918272,-0.021164650160470613,-9.918899485280916
1170000000,0.38771364067880537,0.6277316671660144,0.07912999880947166,-0.6347595027983813,0.022978665224904594,-9.89740855665166,0.4417660473083586,0.6277255351771833,0.13220670201637627,-0.6181356054692082,-0.029495219494327193,-9.898785513861046
1180000000,0.4677881774425452,0.6413300311712261,0.1447432987925546,-0.7367510671163454,-0.025376036273208256,-9.844082060902267,0.46241513792721967,0.641671105840585,0.09470559201229956,-0.669904651274004,-0.025269025914880866,-9.861883730496238
1190000000,0.549278859269284,0.6668661878687434,0.09543377238765906,-0.6255290949620308,-0.02131976590659518,-10.014630403499027,0.4972890468522213,0.662513835363057,0.08601728231081737,-0.6224753146299647,0.008581734252512565,-9.922816555948225
1200000000,0.5290443916105587,0.7703016980289243,0.11726305540441963,-0.6624633037303387,0.04684489116761294,-9.794950441727382,0.4774192464247077,0.6874816416356102,0.09010601540487373,-0.6334406723591344,0.0062810109915500695,-9.886306519220154
1210000000,0.4764365524056193,0.7135970437845336,-0.03646125649364386,-0.723908760769846,0.059868817517927615,-9.936116486956802,0.5016805303063276,0.6737179534914333,0.0402785305542808,-0.7022767738264666,0.03895169495041048,-9.856537659731314
1220000000,0.5718031987007951,0.6000709645231616,-0.01621681545417635,-0.6806431192886437,-0.01293803603846923,-9.926368525394102,0.5086697961960437,0.641788758053325,0.00642070332513545,-0.7233406616751572,-0.02280296123951843,-9.87713714146169
1230000000,0.4787121318913078,0.7208594877312606,-0.01108688114604539,-0.7681946696831388,-0.03324557715093955,-10.025037159031095,0.522289244478803,0.7136846060984786,-0.02900422755798275,-0.724693354260235,-0.03062702084232743,-9.885735744707285
1240000000,0.4642617132385841,0.7888848090341202,-0.02544752827106872,-0.7088095121993975,0.0033267510860796046,-9.991154753242242,0.48489711722024115,0.738151900575755,-0.0207070840100996,-0.7112265932679037,-0.03554395437368486,-9.944538406773486
1250000000,0.47826569191721247,0.8047626941977393,0.15645181198347477,-0.8388902102421554,0.11950826856474674,-10.048539664073948,0.48574240609316316,0.7701866998692384,0.044245445899224634,-0.7223269826910004,0.05485241963917481,-9.9704058183565
1260000000,0.5313625091233891,0.7201346912555876,0.005105292260731198,-0.6851089579341433,-0.11211121461158537,-9.923619194863207,0.49409474466620146,0.7670961398756185,0.03268121058390303,-0.6770025008203518,-0.007272632879551058,-9.973019843074105
1270000000,0.42342231208805514,0.7471561901383078,-0.0446237788833109,-0.7330921794167786,-0.004924099105857366,-9.891929483489719,0.4512043737826581,0.7662357700734226,-0.005324211044962418,-0.6926129168120116,-0.04642117180919455,-9.93745145353914
1280000000,0.4319339612033387,0.686053728289867,-0.18514030436249151,-0.5645067819332059,-0.11003463270691996,-9.777039561277181,0.42366340227339255,0.75309373213333,-0.07587650234351705,-0.6832220849273288,-0.06256909755235754,-9.849287213511186
1290000000,0.45481029854493993,0.7259068920335118,-0.18780437286914356,-0.6823853907855107,0.037429216170681734,-9.914465429332209,0.4326823714018879,0.7584758469383407,-0.14375116107264585,-0.7099221594054016,-0.03404191835739903,-9.890587614694585
1300000000,0.35200209617704187,0.6454340213597489,-0.08419302437453155,-0.8075085201246117,0.05530688607243443,-9.89585263302354,0.4324116683682251,0.7309204990306981,-0.11466111942045608,-0.755638768899096,0.008207019664020486,-9.932918727257428
1310000000,0.35784465040346464,0.7647267322019673,-0.0730627127639877,-0.7787222690822562,0.05284013893562727,-9.981106963984043,0.4116286225805577,0.6953064872261093,-0.06842303636397454,-0.7473598760268869,0.07467508190991184,-9.954588701475052
1320000000,0.46768955388858113,0.6973030618527996,0.02333013776002686,-0.6661765851640095,0.09773475184858596,-9.936132923926815,0.42082292194246107,0.7261964936708989,-0.053206790906979474,-0.745641035102983,0.06231392321407998,-9.918948040850598
1330000000,0.41982221316579194,0.5409818604653147,-0.003142923023097044,-0.8324283925270978,0.026043310472532805,-9.895429163536692,0.41584387495545583,0.6296765991442757,-0.02472831035105263,-0.7504955627689036,0.0655975266413424,-9.890415551563667
1340000000,0.30038315909076385,0.6418502372584126,-0.06808312241314618,-0.7230480561124766,-0.005189526684297376,-9.939452938881589,0.38212706669095176,0.5948594222334304,-0.05308123453084786,-0.7501606083813388,0.025200540226495503,-9.914917170494203
1350000000,0.29230996075665344,0.5345669748007679,-0.029049856469998622,-0.6701502533570283,0.17266270129095349,-9.966329771108132,0.3245127985149138,0.5515468531300816,-0.05440210666354687,-0.7130618269464297,0.10310228712591316,-9.936282792122814
1360000000,0.32108217441397086,0.5396259812248311,-0.16303920552467158,-0.7848430689950502,-0.05557991078831976,-9.896843327399521,0.28550036253285865,0.5343981581842024,-0.08993209955562043,-0.7627830653330878,0.046963752328747874,-9.913205454696472
1370000000,0.27314157456353694,0.5992751651050272,-0.21722906847546897,-0.6640166629180866,-0.036455197872031886,-9.964885518336185,0.28216629004150634,0.5499264320204004,-0.16663543433112482,-0.7340774673397944,0.04585528006228574,-9.952514825118936
1380000000,0.3030351341779446,0.46187834457829247,-0.058452972217740096,-0.8361920039888204,0.003622508602999293,-9.914798390287107,0.2684716874161236,0.5306551806670248,-0.14471283653947176,-0.7802381887003889,0.030957061870041193,-9.967280410269854
1390000000,0.25035499268701084,0.3906129223124496,-0.13260047188710916,-0.7745493639066335,0.07008293171949259,-10.022051097838991,0.2430833697937334,0.47146657038069956,-0.10069945975042517,-0.7675264811184748,0.03544214191386717,-9.966312596331777
1400000000,0.21238652407843978,0.33722657983065246,-0.17491254999113767,-0.7833877830023042,0.007833041172290372,-9.953123717703104,0.2216997717872618,0.40779308665185426,-0.11758832368070579,-0.7931658503104595,-0.006762591906052939,-9.92630320159866
1410000000,0.1289166340444015,0.2887647626854018,-0.14341198807195837,-0.6734833161382826,-0.017382739321670206,-10.02238575464003,0.19382950560607196,0.3648424407136337,-0.13249958507112797,-0.7614390389216187,-0.010311560109352271,-9.953438806802001
1420000000,0.15271655797572722,0.3600814646080776,-0.10385407209678715,-0.728752988972547,0.12414428786879471,-10.041474862436205,0.15200308668769985,0.3273473679297555,-0.10518013370342391,-0.737487027418784,0.002516235161484137,-9.950361866097424
1430000000,0.19267447829465062,0.1679875645675587,-0.12170968649922134,-0.685084935132398,-0.05033494163716175,-9.822676900170256,0.17513622703836385,0.2300565956028332,-0.1253688106258089,-0.7118944930747622,-0.03598421242220983,-9.887481597077157
1440000000,-0.022245620872842167,0.21120210218957325,-0.07532555029686142,-0.7459714340675533,0.09489911564201503,-9.945292436637164,0.09318736416562046,0.1953226801054044,-0.10447030603665203,-0.6851861018762159,0.025848574568442993,-9.898246662550832
1450000000,0.06304496067171567,0.0607863754347517,-0.0648269854877901,-0.822184176506609,-0.14464006681969,-9.973655275180203,0.044077288084786635,0.1504283174814536,-0.096803728503299,-0.7620212258808625,-0.03475586853413783,-9.929435168101696
1460000000,0.04510782724537005,0.3478987083855207,-0.010539111962362131,-0.7457856038262897,-0.0042897009580778935,-9.946292342352091,0.043751538418164274,0.19395464244984484,-0.07075499007859622,-0.7666209366327846,-0.0395740270822921,-9.93883416360046
1470000000,-0.06344026012514803,0.21574460240887147,-0.023927709802091874,-0.6585655679540482,0.10048144624048963,-9.950379894900834,0.013573761235956005,0.2218363612353198,-0.008156058027707651,-0.7463632203034297,0.004083344224003447,-9.953560170508077
1480000000,-0.11300663204330684,0.20201985076606735,-0.012819349388051252,-0.813763497495436,0.007696551573703349,-9.911691172553896,-0.04544055415747408,0.1734643831149427,-0.048983111768576566,-0.729096759144429,-0.03335302591100375,-9.977818080910655
1490000000,-0.006221696499691051,0.030474729055948113,-0.1560680679330923,-0.6974280372252525,0.031111192591185485,-9.909077427187091,-0.04508601347054926,0.08561007920260373,-0.08284832169841617,-0.7318303686285952,0.016504578965027508,-9.957163141746856
1500000000,-0.02584752635304794,0.02009888036313672,-0.09896467511707838,-0.5696934819669494,-0.05977989768443032,-9.940814352354423,-0.027553233572021607,0.0005114488727655624,-0.0652847293715535,-0.73751318396442,-0.0018417527403178802,-9.917700897714935
1510000000,0.06018629750625373,-0.059829399881562224,-0.03639703043042306,-0.7782533183453064,0.07084399469588147,-9.825950897598041,-0.005050906740471735,-0.022077189850641388,-0.05857169652768572,-0.7354469384693275,0.01261021624658392,-9.893035919112643
1520000000,-0.13831390287532555,-0.09749774697480888,-0.022741990046746312,-0.7697606668757958,0.12300432862367935,-9.792719653488485,-0.05028522369782547,-0.07808120607009304,-0.036964522001194544,-0.6918741070915314,0.04352444745634733,-9.893322585955932
1530000000,-0.10334877969779935,-0.13470982781961038,-0.0509159548391057,-0.9125898614433066,-0.12890412074578464,-9.9586315945375,-0.07349359261968497,-0.1169629084689608,-0.0493959947269155,-0.7559071694779016,-0.01842286687948872,-9.895826398489481
1540000000,-0.07782580526749151,-0.20170556302930043,0.03315556317154325,-0.7505580210572069,-0.05629326291473045,-9.920247920458138,-0.0997369872710122,-0.13523644274429641,-0.01220485637937713,-0.7494014921459105,-0.03642955427895189,-9.91786144042555
1550000000,-0.16027916515719742,-0.144285390320005,-0.08531593393392964,-0.7618682338679866,0.03651799169993379,-9.770318739927134,-0.1764952299011433,-0.16490895067173117,-0.03936349200930771,-0.7183979910777556,0.03031806212786545,-9.860105545265615
1560000000,-0.275870200585697,-0.21274212300680376,-0.011595716911597099,-0.7184991766286287,-0.017190328981302783,-9.809896403296484,-0.20668841039734182,-0.17770200075409398,-0.03565664872410131,-0.722772455033053,0.01950278196794026,-9.834326662456835
1570000000,-0.2359589568772083,-0.11619387459449781,-0.013259256945774907,-0.7143388768438758,-0.056953748032166546,-9.811122785222164,-0.24648695817057015,-0.1744643328738804,0.0032868612343861766,-0.7089505483104478,-0.002642582941801714,-9.867629959031056
1580000000,-0.2980757773084222,-0.14881484093372682,-0.07593739502443138,-0.7218735321820905,0.07443778351840978,-9.975194902681231,-0.23611008272305695,-0.15314308187733422,-0.006455363929127761,-0.7287184319465528,-0.023150128864451266,-9.899374242975007
1590000000,-0.21421018241164483,-0.29941704294430693,0.033511624826416286,-0.8298050358195903,0.07923153659808913,-9.972029982288065,-0.22275844481756932,-0.17638647637421823,0.013808013732797863,-0.7653639363718929,0.013129608517845526,-9.915588758410136
1600000000,-0.28648911702197594,-0.17125620679434414,-0.041917424929988165,-0.8339462859547161,0.04160854684672083,-9.817624873316388,-0.24630765009053762,-0.1628819090790784,0.013944234385896908,-0.8045413226625165,0.007868758438164014,-9.850399423227561
1610000000,-0.2322163941367731,-0.26540914307932195,-0.017580389413142154,-0.5956413352751726,0.04690174038621109,-9.802691335734837,-0.24616400179438588,-0.18881571125122892,0.000708667251270792,-0.7557332406409587,0.020506177046036186,-9.828360315391906
1620000000,-0.22167919855914087,-0.29103115179904815,-0.0007104622616628581,-0.7630313025702626,0.06561463418560262,-9.763750078167295,-0.2564845869268934,-0.19933543684451044,0.0005181477929272388,-0.7351134335592829,0.03099575906612899,-9.816408764869767
1630000000,-0.2715681382068581,-0.28074612525806714,-0.0638927566562978,-0.7467927021517087,-0.10223664083729898,-9.798838493301483,-0.26659599015706514,-0.21078731420577496,-0.02442844853915431,-0.7215876581205112,0.004102844336882995,-9.847881838371464
1640000000,-0.29432462781525964,-0.24888598920440425,-0.016752880647950698,-0.7713110113797578,-0.04337734055832869,-9.885467187055768,-0.23592088248462423,-0.24239306933078064,-0.030411444203985775,-0.7324678702043892,-0.022893348124228153,-9.876746695110286
1650000000,-0.24804644271352505,-0.20036483477676992,-0.006419329801182521,-0.7760665196517917,-0.018365369160079068,-9.945925120140428,-0.20824548880588417,-0.23529399338113943,-0.0046221723415060785,-0.7294631207183402,-0.011050707763481927,-9.898861206806345
1660000000,-0.2456469706533208,-0.20909757812362373,0.10542897046270287,-0.6683244318513851,-0.06542523000003335,-9.838694013615706,-0.18033710449043808,-0.20909786473207853,0.04287804955196022,-0.6816082279345212,-0.017302041215072325,-9.856791621440962
1670000000,-0.25496487355445363,-0.1772869830653222,0.06432520667433654,-0.7278364153057402,-0.03744048283242092,-9.869762125094736,-0.2224876668568651,-0.17628623826106554,0.0501391864001144,-0.6753277780308858,-0.014945559913115657,-9.842727207668268
1680000000,-0.2790189199673803,-0.2430198107884061,0.07489487335671732,-0.7805835581052342,0.0053753354276243545,-9.727309774823318,-0.19846511212222623,-0.2200305846941089,0.06995073052963466,-0.7041273368039572,-0.026536119091059646,-9.815189932568414
1690000000,-0.19832584144648344,-0.1259716251905026,-0.028146513239039668,-0.7336159911541695,-0.12455396433541718,-9.838027869826554,-0.19403575943337048,-0.1744921399222767,0.05557917050806971,-0.741641220006645,-0.07622590430773622,-9.828364785407333
1700000000,-0.17790371947162723,-0.24236577599201126,-0.0651689493860452,-0.842121496821505,-0.08412825401816654,-9.885102501196977,-0.1903339244819303,-0.1756321686686734,-0.03477366635186095,-0.8066476845337935,-0.035669129799261144,-9.846336592828692
1710000000,-0.15008306307498967,-0.2407826235155096,-0.016165240029994803,-0.7223692611310923,0.04142749968076322,-9.911957412853754,-0.1662589362078955,-0.22930211402566336,-0.02347684178651503,-0.7762872374441621,-0.013087567964409333,-9.85746761354632
1720000000,-0.08976326540154474,-0.12476933231257102,0.09121443454743391,-0.7559332626899922,-0.0996869101301441,-9.893233936142583,-0.1209365041534636,-0.2026801166374553,0.017145076368576196,-0.744086292493711,-0.03395850123315797,-9.91128535635444
1730000000,-0.10930697839176559,-0.07614642678955401,0.08656931741304882,-0.6619251542456269,0.058460976419712235,-9.951404880906358,-0.10480073388844438,-0.1385146980284962,0.06934868643777262,-0.7042619098277553,-0.023163822430983628,-9.901515623489681
1740000000,-0.09621259804180665,-0.017720367508239646,0.03906567996764822,-0.5926516439036156,-0.01880838441134706,-9.906587514733106,-0.08103857156111223,-0.09485502751825735,0.08330335118856466,-0.6753762559802136,-0.012551342053918642,-9.914044055048171
1750000000,-0.03375841104405952,-0.02503842118714457,0.015775957666963422,-0.6073000153362984,-0.042809549146839376,-9.895342286851836,-0.05437927163209037,-0.06638810523090263,0.044647676519091926,-0.6851709204688221,-0.0038868845418701713,-9.889621929666566
1760000000,-0.02674501368971914,-0.12787831742887357,0.009774032320701943,-0.9000271994371264,-0.07872664283114764,-9.828412109855504,-0.05037111939610358,-0.07347868415799683,0.008486702863840807,-0.7522583323921996,-0.030601347585142536,-9.812078803131271
1770000000,0.0063417502640028545,-0.06812299912178779,0.036530934219528896,-0.687488625724873,-0.056517345403840256,-9.85473645072394,-0.04566364460745942,-0.05293501218408928,0.0042930010091573705,-0.739788173683757,0.00044462440968780735,-9.840473158856094
1780000000,-0.02038458359629851,-0.13888572392419551,-0.0181134559571187,-0.7569618725361834,-0.03209026989788972,-9.8092767109233,-0.03495120585701874,-0.08219030818719686,0.008062345483084762,-0.7127780940135677,0.0022728192164945807,-9.818700951271524
1790000000,-0.07426495821589692,-0.14360715751753048,0.038306304521315115,-0.792297992929127,0.07185956180493769,-9.82148256872902,-0.04569844714784376,-0.08866953505430578,0.004702688152232785,-0.7511200274440024,0.006690161451551045,-9.817382387840043
1800000000,-0.017848159506251914,-0.09527383000720228,0.013720696653505591,-0.6506452505076372,0.017926432025581536,-9.718346914473633,-0.02073182485081106,-0.08795235267304825,0.015389807979033318,-0.7379414221710159,0.015157647652567044,-9.757455256187322
1810000000,-0.01104911846551341,-0.0018379328542080658,0.0202681958610881,-0.6825830755471448,0.09772853787644119,-9.790046382041318,0.009944434774996751,-0.05391374316477748,0.011742583019021159,-0.7005732943307039,0.015182993968802747,-9.771477563708252
1820000000,-0.034785818253890766,-0.04395492618631053,-0.012720289391997796,-0.6047687011884165,-0.04409152540531603,-9.651563909611138,0.023375608613449846,-0.04562397811392456,-0.008783570674072564,-0.6404648135563407,0.01697159658124618,-9.755970299886425
1830000000,-0.0821740474467513,0.06668619079602373,-0.06261439430023119,-0.7188704887725985,-0.15320845537258634,-9.776322986834113,0.0016529012093993746,0.01759387496442119,0.0048353840751525524,-0.6615742865522374,-0.08236283114892506,-9.778057019746518
1840000000,0.017229716006682074,0.07100797068823411,0.009715508073221819,-0.8725439505849714,0.038659426351018975,-9.728049472400617,-0.004806633639030755,0.023452562130557537,0.010288313720512025,-0.7378889728213474,-0.09005219576776347,-9.768313739621522
1850000000,-0.07133104683124912,-0.027284956785065158,-0.005969824582822785,-0.7237682912181954,-0.05152656471782384,-9.8470760595736,-0.02048102572111121,0.02477953327043222,0.013637709672401074,-0.7817422295635639,-0.014464923354259116,-9.809262284025397
1860000000,0.007181878523240137,0.05658038566198923,-0.05427989630571953,-0.7320122005768392,0.10586142402056876,-9.792003551585577,-0.0034261483529598137,0.0305332463015896,-0.00979703316106673,-0.7400465660696178,0.05527431711811946,-9.827058773661193
1870000000,-0.005625211563770549,0.09785663294182106,0.03359644810709192,-0.722530037530245,0.1100024776308244,-9.868047913737449,0.014705193853467058,0.0390658866234182,0.016681913759889904,-0.7424696172027971,0.07144628811640821,-9.844811020345798
1880000000,0.060713999928833876,0.0723943791997019,-0.011958823622525495,-0.7910373192169863,-0.11264017458744928,-9.809912588401106,0.028785762535326893,0.07757371705615361,0.022334838224133416,-0.744150620812713,0.00927762876153107,-9.819255512918046
1890000000,0.11775408120718245,0.10774115861135898,0.0026177676158552995,-0.7260568116212548,-0.08780490707094722,-9.824981163847326,0.07781705385160496,0.06777373022436556,-0.0017506000207603537,-0.7423024694565823,-0.0577288031413612,-9.795057276076484
1900000000,0.0326424320713265,0.14469678583701062,-0.027256798348207188,-0.7100670617328795,-0.13890768079283625,-9.757022324685668,0.06844808204022532,0.12316396198525767,-0.02152466620967857,-0.762334560755603,-0.08682311763164943,-9.783700314807014
1910000000,-0.005581644694140575,0.16882848501695374,-0.0867633201371412,-0.8078370351356676,0.011310223120695193,-9.89387456116693,0.049196691677155666,0.12447003081413205,-0.054046260336670066,-0.8144820883797105,-0.049856493493122156,-9.780615598322235
1920000000,0.09072375247701953,0.12898910087237533,0.026872169970870392,-0.7974778486405228,-0.06310715545566797,-9.81822708307664,0.03831091491529025,0.1588840931832143,-0.027037468851390772,-0.8161937876956609,-0.01963145182115726,-9.798548329007032
1930000000,0.028601934953160733,0.14802335099685443,0.03125934903016979,-0.6898818331958377,-0.05938592544354543,-9.812124063506841,0.05142412551060333,0.1506707043849154,0.02211298412439178,-0.7616585852913021,-0.04750257239742432,-9.768432114645853
1940000000,0.0426451303944972,0.20229513947592148,-0.012318630129187052,-0.771519539427534,-0.05487672468378049,-9.854426909970442,0.05877339938914698,0.1591993669936958,0.03070749101187415,-0.7916542836784866,-0.06478793122543014,-9.789029745087666
1950000000,0.035609256576974654,0.06652412005849559,-0.0442898664652898,-0.8062362576285352,-0.00020364299522724477,-9.897433458104206,0.06167193213965082,0.11391989946786352,0.024681072179450043,-0.77607981945888,-0.014936038442576153,-9.83646083329889
1960000000,0.17458909382990334,0.09875618703533312,-0.017041137431095074,-0.7834627877650714,-0.13205091606907374,-9.727969388262494,0.08197351630513428,0.1019955940935048,0.006552114778500379,-0.772633355025123,-0.02259113088445306,-9.808231367783408
1970000000,0.14928767312420957,0.15713272700889142,-0.0013811604542675153,-0.7406468724673574,0.12453371800107192,-9.797521674653447,0.14018549520529971,0.10980831301030361,-0.01453261832559967,-0.7836110337104498,0.01725602016432266,-9.78852606810207
1980000000,0.1047968293432971,0.11853065684682743,-0.07399130383452317,-0.7382641236086237,0.006761606656449891,-9.782885076076246,0.12237796418670277,0.12498848122011703,-0.044843447289975906,-0.7670561233093904,0.0026807554610442236,-9.78205060913996
1990000000,0.14561409531966008,0.15383024634422823,-0.029697120396981476,-0.8856704200139329,-0.1322353829170959,-9.747366907029834,0.09224477308074151,0.17208315279453293,0.009671788666387002,-0.7715098012318526,-0.03447166540211859,-9.76462593151425
2000000000,0.09606128903247695,0.08635057503685604,-0.010515860691462344,-0.6860826493940383,-0.05583967677365942,-9.854528525043795,0.06609828647755814,0.14125739025008688,0.012100872881418685,-0.7689094327792472,-0.056833257253792305,-9.777842143090954
