timestamp,gyroscope.x,gyroscope.y,gyroscope.z,acceleration.x,acceleration.y,acceleration.z,gyroscope_filtered.x,gyroscope_filtered.y,gyroscope_filtered.z,acceleration_filtered.x,acceleration_filtered.y,acceleration_filtered.z
0,0.0,0.0,0.0,0.0,0.0,-9.81,0.0,0.0,0.0,0.0,0.0,-9.81
10000000,0.07689080539133387,0.014730780729938466,0.25787250885689306,0.0560079235581528,0.0651989729391847,-9.812932275012502,0.0016208581107217696,-0.00022126249378997664,0.08837626924991387,0.01978349202015074,0.034101756295424016,-9.818870100670646
20000000,-0.058431829717292195,-0.05412991960011036,0.7088932285477979,-0.029519925593295377,0.06312923620448771,-9.876141684970664,-0.01759310501232575,-0.02772777077665769,0.40820473396420354,0.005294735388871333,0.04359316838725852,-9.880586954193745
30000000,-0.13017305127538334,-0.22578162320871373,1.403240393318163,0.032523404229987576,0.16564268303413485,-10.031278241004406,-0.07838303680676162,-0.1259957363154224,0.9146680673225409,-0.03434425032012024,0.07745944261364797,-9.963899079763436
40000000,-0.13075896465378262,-0.5049159072280032,1.8084517257207777,0.12761463228164824,-0.05597076269614758,-10.104685594648629,-0.10248675523173106,-0.3238416490043897,1.4405576440068482,0.021884425618676182,0.04971043859559376,-10.05235612426444
50000000,-0.015636087189391336,-0.7469115147990577,2.2745118790564467,-0.07254095331853103,-0.0015750983153931166,-10.110567725057544,-0.08933497820358288,-0.5835722859640632,1.9355102260224757,0.052358556777536994,-0.015919354432270372,-10.104196499964893
60000000,0.10650884358455542,-0.885889583642756,2.5725520059118656,-0.028593576116255476,-0.02167049610851561,-10.111641538749373,-0.0339986528726131,-0.7699055615977818,2.3456677761469527,0.003483163756707989,-0.003983149472939752,-10.13017290578366
70000000,-0.04179626316135278,-0.9984491242200959,3.0679395115578862,-0.04863273508358325,-0.09229622650419723,-10.240942943095163,-0.026829228772099825,-0.8979558045619862,2.7485783680780664,-0.04061974992327247,0.0027960249419271103,-10.203773959618934
80000000,0.09189359087542513,-1.161240656355019,3.346135470107425,-0.057691678686271355,-0.015330132878617564,-10.055111766499136,0.02197396200864033,-1.0650759230525815,3.1099263856941497,-0.01148457559206097,0.009739129031054155,-10.154266977233853
90000000,0.023806862479789595,-1.3726396201582574,3.7313113185554028,-0.17140139913971109,0.03169243666151053,-10.212824803265557,0.039774740527742915,-1.2230057610818368,3.461813114506827,-0.05393081014097476,0.04284123702039529,-10.145549533663742
99999999,0.05096217814055808,-1.4238545057749257,4.055347439522199,0.03831852335773577,0.0782911463630135,-10.176290386956243,0.06077544876646653,-1.3603070423230061,3.8134270846675786,0.0079139460461273,-0.0058144541651806185,-10.147853583234989
109999999,0.1921656378485359,-1.523283429041614,4.279769759961952,-0.04743101224526396,-0.10003176830871069,-10.13426606779765,0.1113552636039154,-1.4390093916973674,4.090766107836542,-0.0032849298182328433,-0.05854876938438808,-10.164263958202241
119999999,0.10386216717055471,-1.5826466548483362,4.514109411661939,-0.013722800916363796,-0.023273257575876057,-10.065492177142996,0.15192735661231735,-1.5520329465785176,4.342795171717391,0.006495316103433497,-0.04155787286910985,-10.165804780132035
129999999,0.17740823188185223,-1.688681578009709,4.6024026650462355,0.05277665603438373,0.05485586722724289,-10.035519728459233,0.17974960179273652,-1.6487319603073625,4.546544110167692,0.02433487118765682,-0.03175052680501032,-10.094194280682872
140000000,0.3361283671529344,-1.7658691630197179,4.865763214917483,0.040816568817869436,-0.04241403818270144,-10.278740061241166,0.2782496056000901,-1.6823282603050629,4.720880328474667,0.040670535484910064,0.00035134106907543376,-10.179361737327822
150000000,0.4254910480720293,-1.7721849312291593,5.114082891023473,0.0006590791077013668,0.04480587324161785,-10.093943794183149,0.37025124090832273,-1.7328523338668709,4.933663070967112,-0.013131541055678658,-0.012020412325964212,-10.142560778572426
160000000,0.5636850314517701,-1.861127534174513,5.094287378339501,-0.0037868810479613725,-0.03613708721844624,-10.082622012539531,0.48061995901527943,-1.7536608735001853,5.039743769946775,0.005415496338134906,-0.0034546261732672804,-10.142234979957616
170000000,0.6568429093393048,-1.7640730729096095,5.245282990874137,0.06999666896990542,-0.056278673015315105,-10.105734821553433,0.5952949860216457,-1.787465670778614,5.17509092140217,-0.0011234402004310189,-0.019922602531050288,-10.142418386065124
180000000,0.8366070378551431,-1.8685537085749773,5.412998669171472,-0.002241044165943496,-0.019505717079005433,-10.200740037934963,0.7194245464394882,-1.8128608833639164,5.32625564565066,-0.01982555240299123,-0.021771481950540354,-10.139812054425805
190000000,0.9511135911695114,-1.7002654844953233,5.492962094028251,0.03878325265135632,0.02688733767192287,-10.101295834141068,0.8478916080060532,-1.7641231973816227,5.4416117635090355,-0.0035109465175783196,0.015612235657117383,-10.158892667833337
200000000,0.9859479008670525,-1.596927528913806,5.72767493908821,0.017894251770864365,-0.05042324994026784,-10.282122756812303,0.9364759000626229,-1.699399708800389,5.578214708298026,0.013190220039674763,0.008352928073299152,-10.168571353148824
210000000,1.118126885736873,-1.6697400043234945,5.641497036362317,0.07082619876161768,-0.06369608720247143,-10.224401906481823,1.0565932661155415,-1.6856824936303672,5.659075047442354,0.05855537172999379,-0.02918825388805981,-10.138086956666669
220000000,1.2143752753879633,-1.6309838083991097,5.704720845818062,0.02726518638626542,0.04326873635880492,-10.202867515393763,1.1562922792630457,-1.6610336305065623,5.6936332740291355,0.037955660393004444,0.03602103394273127,-10.132037974118509
230000000,1.3352958779014041,-1.5928458650188886,5.699068443382535,0.02842256811500448,0.03162546903209569,-9.999206409230554,1.2402850120949898,-1.6246394453215656,5.708170374356829,0.011486685388927075,0.0034569357476742185,-10.076131097748666
240000000,1.4767618833983958,-1.4420548918609315,5.716653891061044,-0.049361215348227086,0.034527602278204485,-10.16676608683521,1.34730810174158,-1.5590768666200858,5.728584536618479,-0.019468195498283887,0.049892341957044464,-10.090853397119728
250000000,1.4901060531411852,-1.4096387530647416,5.572340988037908,0.052609992645826664,-0.16473283001147215,-10.185763770384781,1.4271312112212462,-1.4556589612305784,5.672744346091419,-0.018978343767298195,-0.02276010793843052,-10.111192030772065
260000000,1.5217455107528226,-1.3127626430400736,5.561765549096993,0.027612974712818608,-0.023303698366726664,-9.96651747597018,1.522321299797074,-1.3618907018111157,5.608819561667769,-0.006511814040159667,-0.033838568048752724,-10.095348469118052
270000000,1.6414368242612314,-1.1172803633294157,5.297887088472022,0.10155771603661372,0.018521872644339358,-10.107152244794406,1.5853460844024732,-1.2399553206570566,5.4649116828729465,0.055209044261535715,-0.018795228514273326,-10.061156984686065
280000000,1.7893949638495097,-1.0170878915004005,5.104932663883453,0.032451734356551784,0.0056885394727906324,-10.246038040166422,1.7007746876638354,-1.1143980992827671,5.277032617358042,0.06380760305571004,-0.02462872044802554,-10.172649035287904
290000000,1.897450700432192,-0.9290303467262975,5.0559052464874386,-0.061913831488420404,-0.007123444650270844,-10.271457201785442,1.7799373674076502,-1.0355622939868883,5.10940753515003,-0.006223338924018242,-0.021963613347941287,-10.177115396660504
300000000,1.9029863278731143,-0.8274293873806882,4.7320420928959255,0.0035441211524476542,-0.014023925686077163,-10.223479299879319,1.8745466751479927,-0.9040296412259171,4.923488949849143,-0.0323034270098409,0.006773493470259101,-10.228150107385945
310000000,1.8656029061656898,-0.6298966284614974,4.6194929259066955,0.041965483755588805,0.12430985674423396,-10.161405812608304,1.9008809272236902,-0.7432171683965643,4.7164719537956925,0.0492391123042472,0.08830545642230071,-10.144017316519331
320000000,1.9894724834355388,-0.5746024897641138,4.3720780387674365,0.0918155480345506,-0.017598170359293192,-10.04753480180038,1.934363310974505,-0.6362671770136175,4.523078789491573,0.03994247959828574,0.048679470946637625,-10.125984858141868
330000000,1.9801592154872927,-0.4493205063253663,4.048968471273113,0.03942963697271493,-0.008952020603907207,-10.232492603999711,1.963154964055285,-0.5565394707902248,4.273128950419426,0.0345833279575611,-0.00033754842719677276,-10.161320116193586
340000000,1.8715894983759969,-0.2315470962572738,3.6994997391298448,-0.06666074233308636,0.0967902249609818,-10.258066882537001,1.9581194356757585,-0.3902224338745066,3.988794258678085,0.002587666992444143,0.02037248690163256,-10.216320440586127
350000000,2.0115565991758038,-0.24066453233907215,3.5727479874776646,0.08415867181179436,0.0031840310110070862,-10.01010441469894,1.9746701136590625,-0.2959523334051451,3.7403635374649893,-0.02292081955020251,0.033804533194500955,-10.180156920249104
360000000,1.8540104048587565,-0.1939742851606826,3.3112053654845126,-0.172814702213484,0.07219894267650703,-10.11127747767501,1.918445528812484,-0.22381982820884358,3.472580851512048,-0.08525501495225452,0.017921458491210844,-10.15913993338257
370000000,1.9381333429907224,-0.11916784264886071,3.102010634740208,-0.05289482044185864,0.060207392374647214,-10.159596422304412,1.9167132304212702,-0.1811142395675861,3.2466406829271435,-0.12261750416340966,0.050008534478508705,-10.1330179364696
380000000,1.9149634936987123,-0.035989102900340006,2.8078377611122933,-0.13417832327252308,0.07881123778259685,-10.268805105300798,1.9098209223295477,-0.1439732785636701,2.988264350505136,-0.10006834923697806,0.05811486574111007,-10.217020464918953
390000000,1.8212789882147888,0.0018103242188977798,2.5396998199106804,-0.021575489945205133,0.13098851276669804,-10.342471672598549,1.8847849728357393,-0.0716022728106838,2.7437308711547868,-0.09434024889384787,0.06864687077408324,-10.252165933721743
400000000,1.849050760087281,0.07914673047015276,2.180326073960508,-0.1294995725092308,0.030235311870691596,-10.33296471004939,1.8670343276653347,0.001751992613013998,2.4435699797182844,-0.06397067579335727,0.07564593011478779,-10.274910805921163
410000000,1.790886156847763,0.08635287952951703,1.87143087501131,-0.1135531497406469,0.02975313643952704,-10.293181658874543,1.8235010938426002,0.0835418793527753,2.1276711312335603,-0.061314165058219565,0.0364799038157651,-10.27424985181879
420000000,1.647096547377405,0.1380265488731268,1.6095930663851545,0.05504129798447302,-0.09743708290013041,-10.112457783092763,1.7340675759074777,0.11876286497561045,1.863867772286102,-0.013186770560603998,-0.013647817693649655,-10.193755540443572
430000000,1.7180191919866814,0.19156620375973882,1.372681468602003,-0.04050920357312797,0.04583744035603575,-10.345739901664885,1.7237402680900098,0.1427576814118396,1.5987442612081733,0.009229983815531048,0.04232757017482472,-10.263703329861897
440000000,1.4301508669564968,0.18648210058574027,1.3282257941704037,-0.06696264663125533,-0.0411775472161051,-10.325364549908624,1.5998625033270941,0.18496421021880732,1.3891259652908234,-0.027099136350581768,-0.007767638181128867,-10.2580201770107
450000000,1.5113783013457294,0.34299487638387005,0.9915660510664775,-0.18275337817697831,0.02678275689645169,-10.31488905105512,1.527224532542572,0.25953030950566347,1.1742508819953335,-0.09152417736105181,0.002469395379455684,-10.316740352587725
460000000,1.39065666663785,0.29995994248660307,0.701854503592581,-0.06463426227445068,0.028298047253474477,-10.394505563691968,1.456486017564064,0.28734503808713696,0.9206768753275548,-0.08236874478096416,0.027312093996680713,-10.343703876613183
470000000,1.3374429515648505,0.2435107767228771,0.6296266459110529,0.0868508312106818,0.13090951865519554,-10.317081232847588,1.3801324734238813,0.26758294993267967,0.7152518683569957,-0.04026712848786647,0.09818554462926687,-10.301930503249217
480000000,1.2016614634244602,0.19233478452626412,0.27884217236161435,-0.03147239689316757,0.0983536780484748,-10.22257411949018,1.2896748824244109,0.23826868387413006,0.4871137833186677,-0.035182348208408085,0.10468878790223404,-10.243451521422346
490000000,1.2102519650516166,0.2578781904417588,0.09344083662949557,-0.10810857371486104,0.11743924497372747,-10.1880541558434,1.240293001288542,0.254792513842921,0.26280443307499535,-0.0727114506166663,0.12430751366107415,-10.203185568347102
500000000,1.0830738270426399,0.28219354984589673,-0.11475974047979369,-0.03881838480156313,0.10923997021270904,-10.319461619910026,1.1377922564430114,0.26887195822217685,0.08078655989072507,-0.07751535455669345,0.10972349143037394,-10.245536026436218
510000000,0.8955267386551462,0.2440151575418904,-0.0954043218745609,-0.028071895692952986,0.03024958839884971,-10.188767829567565,1.0020353594120668,0.2610451050937511,-0.05619745104268392,-0.11997449972615981,0.08990075351608669,-10.246496295879727
520000000,0.8198457431121082,0.18921107378636629,-0.3879984696826925,0.025238100823412865,-0.016415454961342918,-10.336790789905104,0.8970189334101393,0.2329043597102084,-0.22162787769744674,-0.06408041422645022,0.03322814073356446,-10.282604055002295
530000000,0.7470233795051531,0.20753603686400504,-0.5133514261732008,-0.1423439442845184,0.14651238356482482,-10.261501914775895,0.8140883025998343,0.1858307556974575,-0.4055757242284796,-0.05780341720943567,0.038273807215764344,-10.26022128386442
540000000,0.5926517515303739,0.2032466855012189,-0.6839555434084275,-0.09222428846103155,0.020148424145032432,-10.153102237405916,0.6819219962587959,0.1930665593558009,-0.5599431204070721,-0.09507588098555746,0.07213247101110233,-10.216613831459757
550000000,0.44114716943340776,0.047050388981223726,-0.7621055329702033,-0.2998040923025804,0.207004842551288,-10.495582619280738,0.5561619873219998,0.1654763579398788,-0.6745994590525966,-0.174896125027793,0.1212942932992488,-10.302210880758901
560000000,0.32508474406851096,0.1773351412068201,-0.9318028792149561,0.09706035113530569,-0.055374902021432075,-10.175147099720744,0.4392503853936382,0.14596519374181258,-0.7802201836594123,-0.07133930792375492,0.03546032095328287,-10.280875092956261
570000000,0.3659464586869805,0.025078916230623603,-0.8944556432062583,-0.10687181523186377,0.11591678418598848,-10.1762806878231,0.36812239141895947,0.10259624861770186,-0.8685546308081802,-0.03934168007018424,0.09587407168802888,-10.241340477785908
580000000,0.18752372643786133,0.07263488538427591,-1.0466878977996465,-0.0736291273182994,-0.02003823275478594,-10.277488093179246,0.2569141793107433,0.07133651472803679,-0.9327628246660944,-0.11934557787331723,0.06827970722278785,-10.194899754185226
590000000,0.09913930893851026,-0.06625824437384167,-0.9150795985684288,-0.1963733369176692,0.16795934105455523,-10.2949727598011,0.17198507356042725,0.02810660626860947,-0.9335709389268207,-0.16044096861699436,0.04218323420477694,-10.25861923993868
600000000,0.08799118602987674,0.07192691984181133,-1.0690067266657954,-0.23883478510064704,0.13827204411554603,-10.216451136627539,0.0823492325747837,0.028178469721998174,-0.9874183168346412,-0.20610147478997148,0.052210170854030846,-10.24880244440169
610000000,-0.11647603092663145,0.008094093020141394,-1.043792938213694,-0.1978927720280227,-0.00626150219872211,-10.192166334809162,-0.048614967509050144,0.002801475789110017,-1.052068719361848,-0.20664881235785504,0.03047626304719831,-10.180016096293075
620000000,-0.28257059546856245,0.06807307317037187,-1.1134835281827158,-0.1667640616724986,0.0500067809943444,-10.272089761359434,-0.1714084204705964,0.04733182202152536,-1.089215025385524,-0.1681791820531871,-4.562818723655377e-05,-10.215371831038546
630000000,-0.3510335818683088,-0.1350856185521921,-1.0832686960784588,-0.186264351273891,0.04203829616297986,-10.269792193757459,-0.25939609302240524,-0.03357286585188914,-1.1044644717421168,-0.1814658740438156,0.009897548210519577,-10.262916362368202
640000000,-0.49731115022457156,-0.060851415514249316,-1.133707660587821,0.004595067288928362,0.06020685653754409,-10.234540583853853,-0.37856961727365335,-0.0968978885972887,-1.1043345421889799,-0.10424088327210249,0.012676594872278568,-10.267039453493727
650000000,-0.4996901272868989,-0.1364392724351972,-1.1393703434443296,-0.2607536598770227,-0.07802575979143961,-10.11850615330837,-0.4590224744038949,-0.08005885548451054,-1.1220744093064008,-0.11749411471151414,-0.020556436803166045,-10.207652104837148
660000000,-0.531123214181777,-0.19207065943670185,-1.052540467776958,-0.21321876219236366,-0.024561419576406868,-10.181358917263953,-0.5140654279182342,-0.11428449883051589,-1.0771306489568802,-0.19736097399969604,0.001776424671853432,-10.192578341039432
670000000,-0.6921784362625439,-0.12563170773168048,-1.0737276861832956,-0.11089085945814486,-0.08334429124281968,-10.254477970687898,-0.6192335259836617,-0.1102320277420874,-1.062174294688537,-0.1439091976249918,-0.05828745529536918,-10.200816336054622
680000000,-0.7685815871570684,0.01639870185202566,-1.0645992652413365,-0.2786788895334597,-0.05904251636688676,-10.138116998466307,-0.7158060857261505,-0.06311802469088122,-1.0392374841810574,-0.15760441727441288,-0.04216967204540199,-10.202669402425425
690000000,-0.7943605058541848,-0.03576510704433622,-0.9489134808022994,-0.14209164897863263,0.06878737939623646,-10.196195834588698,-0.7788890347442241,-0.04135474928697805,-0.9840197866854723,-0.17456900145301793,0.023322623838579845,-10.205925424167015
700000000,-0.9375549586116626,-0.08281590110648662,-0.9279499356403808,-0.2212413473986114,0.006788472819807264,-10.225376493099049,-0.8518888233155458,-0.06792291451704499,-0.9512456722094649,-0.2178515307991778,0.00464161105331021,-10.208014623212772
710000000,-0.933528046137262,-0.07451479076591744,-0.9198747674700856,-0.32485735237418334,-0.0644482377111584,-10.264890659121253,-0.9069761404334955,-0.06417790789132133,-0.8992364655346042,-0.24063569607401192,-0.04239604903085012,-10.23045683783845
720000000,-0.9599883817291079,-0.05306218878322505,-0.8718187447628489,-0.195414244593436,-0.18821616701396068,-10.124157382701105,-0.9338625609246384,-0.05781380147137755,-0.893446372452156,-0.24145985106223378,-0.14823015612950638,-10.22030340802707
730000000,-0.9243925668872036,-0.0803836758478451,-0.7756795679097402,-0.21843176525024935,-0.059879784034719746,-10.22465333133934,-0.9590886950626967,-0.06893583975299307,-0.8061159835693363,-0.2396844887276817,-0.103228134292115,-10.201704358251888
740000000,-1.1714493451262387,-0.038780768929327115,-0.6828456255165639,-0.14174034662339371,0.06907447131889552,-10.2152152495654,-1.0593354247428157,-0.0635954821285749,-0.7497388821648059,-0.23023826886694435,-0.014903911101734377,-10.22162170708032
750000000,-1.0955217312161374,-0.12479948798852478,-0.6816637858668178,-0.24627478684011223,0.05328733900282076,-10.211683522516042,-1.1099472832044315,-0.10028608315731814,-0.7181136108216088,-0.2512866588088286,0.013661244479614861,-10.218958323578775
760000000,-1.1601183162691615,-0.09416007087795954,-0.6554689587734719,-0.18283848154647142,0.05557360010826251,-10.208690216243157,-1.1348968350705027,-0.08462859689713498,-0.648746567722932,-0.26364995101323374,-0.02897043782995998,-10.224036121350856
770000000,-1.149549554371082,-0.08368446757893849,-0.5790881072892707,-0.1387327105672826,-0.042427462617993746,-10.295158062597581,-1.1423061257432425,-0.08981697600272034,-0.6286562532570474,-0.23502898815221843,-0.012945578490522469,-10.255869386874648
780000000,-1.1914332487180193,0.017686854344257312,-0.5104740355139529,-0.2097159441267292,-0.10863142618664343,-10.39559301805732,-1.1740227918988728,-0.05264152314740009,-0.5567194638291995,-0.2553918866578108,-0.03948904872287067,-10.341159318681298
790000000,-1.2293213660855078,0.0389622749337344,-0.3575482125099294,-0.3338144385182183,0.034105241928940815,-10.280233563566927,-1.1994993175629634,-0.006553242655096825,-0.4298925903076299,-0.2950751211476615,-0.036086686069769225,-10.290948824865275
800000000,-1.2032439534557797,-0.07547002307447404,-0.34209721515993036,-0.3831119365162968,-0.016343430802651444,-10.207881237610374,-1.1702759788622423,-0.028814107889083423,-0.3800788128623755,-0.290755431025742,-0.045232467804096926,-10.232582101407548
810000000,-1.2142028346830864,0.011077816183049156,-0.31827340917387187,-0.22528548628336942,0.018735053830399834,-10.296557925749012,-1.1806404342890038,-0.028963577075601318,-0.33745696656674196,-0.2626257742891495,-0.03280886760547053,-10.239478880956232
820000000,-1.1723138540562932,0.008480519194030499,-0.227290466622293,-0.4279455101889259,-0.08747260024592708,-10.371016054679462,-1.1808493060685756,-0.007113555618441114,-0.2637812173537203,-0.29319253403700707,-0.07122716008776446,-10.274118724802744
830000000,-1.0194429154329159,0.04951367024488358,-0.14008499360819507,-0.28857054736596593,-0.05307745832224833,-10.305608831162424,-1.1266678598431645,0.022734016862540327,-0.18803323857784032,-0.33743288568979324,-0.07375363823876266,-10.27717774082825
840000000,-1.2160075530396923,-0.12633414758494663,-0.2041268362919312,-0.24807725161884708,-0.06105026716325081,-10.305901273010582,-1.12978451175031,-0.028313143198469514,-0.15937255625649221,-0.3203730319774555,-0.05679951690722683,-10.295174169321138
850000000,-1.202491885146559,-0.002177558550720396,-0.05595967976327619,-0.3886279098350651,-0.0264009194353398,-10.316248350847708,-1.1258481187493623,-0.04056192585998361,-0.13343782044232677,-0.3330806234681023,-0.06291588865133585,-10.31652820572777
860000000,-1.101689681313961,0.041032725108691055,-0.025257479411929018,-0.3443012350840169,-0.04154305408319965,-10.354359364644784,-1.0966280988411672,-0.014741188513163644,-0.065306217042371,-0.32317388745382036,-0.06228347293614642,-10.30314138662917
870000000,-0.9936446399214516,-0.14287893429992035,0.028077902606014647,-0.32588263223763797,-0.14283579116284395,-10.241525856891458,-1.0605144443541048,-0.06983044400412698,0.01094111656488794,-0.36549154500747716,-0.058011413037618795,-10.283572245062127
880000000,-0.9778968545956414,0.01675488324013695,-0.0188486031903161,-0.42130392956000484,-0.15710014177946807,-10.243868566296635,-0.9974900200473409,-0.03287522358023765,0.024490489376294007,-0.4077947177830883,-0.11905239085403657,-10.289051614869944
890000000,-0.8300273108539953,0.05286098805966713,0.15066056177391499,-0.2941834327678009,-0.1101547692430858,-10.288968952256015,-0.883803603017653,-0.007115244969147129,0.07461057426457599,-0.42973969954379043,-0.08041341573862257,-10.24688927038837
900000000,-0.8621089401411588,-0.01590405908921671,0.19715408420626787,-0.33953817965123184,-0.08806518461962992,-10.317500258945035,-0.8384871268236829,-0.013369868591531987,0.1427389012270043,-0.35933139445117246,-0.09752845850934365,-10.276581574653582
910000000,-0.9013583162247569,0.023255025332733856,0.20417734241639454,-0.4869929282509803,0.08294771057087075,-10.152874693934177,-0.8350315093501912,-0.010856201001909715,0.20095222894953613,-0.41599173579142357,-0.07416640428873492,-10.223470649799077
920000000,-0.770961123281179,-0.06876558371949475,0.21090566526368237,-0.3928802331567933,-0.06895724675497023,-10.155094180508557,-0.8035424852345404,-0.005102324420744378,0.2253816623113178,-0.46386429058363754,-0.06628706106708425,-10.178450090799373
930000000,-0.6604661746583452,-0.06686518661405061,0.19747925043514702,-0.3733361645106308,-0.08732120672510682,-10.211403445371639,-0.73329769008821,-0.036625544427615786,0.2362602644225122,-0.4152995392716868,-0.07590393079192459,-10.214803759676233
940000000,-0.5929274143255157,-0.008744408309118669,0.18500054136431054,-0.37624021357251386,0.10116551997403879,-10.353430478901819,-0.6714644911464104,-0.04352849356639566,0.21314814111008526,-0.41635194920330837,-0.018140207966261628,-10.31768539444163
950000000,-0.6019869100931562,-0.006705748402053258,0.304145437178069,-0.5986072481282039,-0.12102780758887263,-10.160177485073108,-0.627005487880432,-0.010979867719230069,0.2496981713654547,-0.4919070892416155,-0.06882548923258985,-10.220045271310655
960000000,-0.6461580832271047,0.013987786436137564,0.3051833055342284,-0.3613045904877446,-0.07264573484070184,-10.143687576941147,-0.6396379225277598,0.019618609369997122,0.2983199249834659,-0.49074980664173384,-0.07355453311625523,-10.203939133687213
970000000,-0.5760498323077163,0.02320885455242103,0.3666089323833603,-0.5292074402709521,0.030021872413806716,-10.221951563555754,-0.5902992880261964,0.027521700844474813,0.3428127478273232,-0.5073737226112554,-0.06439460259397353,-10.179922564620597
980000000,-0.4331605945278476,0.13922467953861029,0.4013210462924464,-0.5125312806324669,-0.10928667483292323,-10.326318165346102,-0.5063551205492349,0.06577963810638078,0.37038293970053987,-0.5012181911925583,-0.061518351423064443,-10.208467585287321
990000000,-0.35833304161628593,0.15427588479837187,0.2543116451776796,-0.4601488830632631,-0.06668156776512159,-10.052746927680039,-0.41667437597359586,0.11519258380226444,0.33604298073250083,-0.46763856078915533,-0.058856233043540714,-10.14375816896193
1000000000,-0.31063364543453925,0.14317528189213566,0.32544769591808564,-0.48075169479938373,-0.03162587732355668,-10.092008822911614,-0.3808509669003358,0.14786331637239325,0.3330086744254266,-0.538820568599531,-0.05184087025144379,-10.102274671391413
1010000000,-0.3467356033163964,0.10651921511428869,0.4372748820295006,-0.5509154005562846,-0.10052971692005679,-10.18226049921939,-0.34388488902307723,0.1612813359950141,0.39075382911669143,-0.5533922246483072,-0.05066016028483276,-10.123982992868077
1020000000,-0.2555466409409537,0.22704810002116957,0.3417528625722385,-0.43024791456191047,-0.08365071056806002,-10.201550990074084,-0.2895844139683456,0.17367254240678276,0.37025704275256516,-0.5054910083220947,-0.09124767789458488,-10.166663479243628
1030000000,-0.1766938888734467,0.20843721752720823,0.3048311008672375,-0.5208141519315491,-0.09199787971016646,-9.977411872887547,-0.22185495263724728,0.18946038125067025,0.3337891081857532,-0.5015090039097752,-0.0547732652803979,-10.113517467116893
1040000000,-0.062448102950615814,0.21059769064203765,0.283279049282183,-0.5464612442364314,-0.06534658205986585,-10.078240028091544,-0.1468798568903208,0.2135976730893264,0.31385636190234717,-0.49839143352299825,-0.04692910377686158,-10.092859602643983
1050000000,-0.17059166831138972,0.35692902608001575,0.40109325479326535,-0.5514645234205992,-0.12470823575444823,-10.063308913415725,-0.15705367646375193,0.28159145334406055,0.33147955669616763,-0.4972857844823846,-0.07957007731866753,-10.087865146198638
1060000000,0.015430257056856495,0.30566661071284396,0.25326826517734663,-0.5362586246287105,0.0173601653646223,-10.02223788883472,-0.10591068352301584,0.3440310807510105,0.29952685775660737,-0.5301388443634804,-0.024169090936441623,-10.028379569372241
1070000000,0.010703996686908687,0.42994305379746534,0.2443736192896696,-0.4696882403234097,0.05336153939595637,-10.070298248677828,-0.01921229662393408,0.36531347235295075,0.2793908039329659,-0.5326891466224893,-0.017552897481898304,-10.042650062235666
1080000000,-0.05780119458397475,0.45448444441679275,0.22060165791607636,-0.5471255600942724,-0.041891346903710575,-9.995287926617847,-0.005939835007801966,0.43354533307606014,0.2663490863481897,-0.5209332329900751,-0.03183200001753328,-10.069733390637676
1090000000,0.05770033840081517,0.5327215470656194,0.25901421925327683,-0.6837331040231097,-0.08611840683792565,-10.078000761346404,0.02323541102793443,0.4891498708497992,0.2596879739313255,-0.5917567860972597,-0.06478129597548002,-10.077860016579208
1100000000,0.09129633717874006,0.6753762280232392,0.2847241763590496,-0.5819938778717799,-0.05775766870466838,-10.127303861293953,0.04891269678790448,0.556870241570849,0.24737294060426637,-0.6097062179900593,-0.06767112565616872,-10.118100498332028
1110000000,0.17022576522648075,0.4931596036989376,0.21751985212264585,-0.5302375033062086,0.06216672069482699,-9.983630836223535,0.10629767536839942,0.5754868571309546,0.23620089925334112,-0.5858913423678341,-0.025378179772482776,-10.066390054189595
1120000000,0.2291327140651886,0.7257415733226529,0.12555719223909548,-0.5459579961311869,-0.029268539376396497,-10.090040039698104,0.1721303097335787,0.6327314607314918,0.20063755712282547,-0.5508917464489189,-0.049385317020003094,-10.042689679450643
1130000000,0.3023321881072688,0.6443322290199553,0.04869860072514795,-0.7034269929937913,0.038599467140760235,-10.01512455463451,0.2554060028177207,0.6554274984980015,0.1481672962854838,-0.678310063173188,-0.08684762312545992,-10.014060506635762
1140000000,0.20476659056422297,0.6955385735736246,0.19599087611208924,-0.6544340576488082,0.01135050914888202,-9.901213153498706,0.25003278805936013,0.6498228657916767,0.166289891651139,-0.7105189535809757,0.010233455446673595,-10.012449239524168
1150000000,0.3112154732941221,0.7007255633575098,0.28478277537107777,-0.7685409334485078,-0.061935858535350156,-9.950394333704594,0.25080040871703513,0.6902505435176809,0.21218067037643956,-0.6939766540212096,-0.023237126101118673,-9.978591592723866
1160000000,0.18472046150854626,0.678696099492792,0.2321140473657744,-0.5931745677029778,0.028753693535363042,-9.866445831385192,0.23011229942385517,0.6868927332577517,0.2196118439920317,-0.7053441213000238,-0.007716268732113526,-9.922131761364655
1170000000,0.26626746434907733,0.8096950293834562,0.09258421277264516,-0.7421509321614641,-0.05401348420876907,-10.040665050089606,0.2727671170694501,0.7371605671722996,0.1789538750571492,-0.705725772156967,0.030467785636519414,-9.938927285304798
1180000000,0.32286419230531815,0.7302078852771254,0.16056558510790836,-0.7701266503155695,-0.15743614641893508,-9.986160785620623,0.3269388019506189,0.7557196135536357,0.17881053716920556,-0.7359294025150406,-0.01062852675534447,-9.940224875719185
1190000000,0.4432351589312162,0.7913989112501443,0.1347453222860268,-0.8157787245914557,0.0053019879959318485,-9.944757938390197,0.3655753526894848,0.7393246588952028,0.1576513168799763,-0.714524024318518,-0.0022049355820433596,-9.908039026538079
1200000000,0.37005290618269926,0.8250139621208237,0.11679741310919403,-0.695664895221135,0.053223138114529854,-9.799257678010926,0.39253665431674506,0.7546899563428053,0.11652927195664219,-0.6843909795995675,0.013769294425845369,-9.888161835232548
1210000000,0.4428865984197668,0.7992414392654917,0.11228681255015399,-0.668887616619776,-0.05146147360542383,-9.856329496633686,0.4219039747973154,0.7939890748801994,0.08394568868421654,-0.7134952526402509,-0.009324596561511606,-9.898954482811043
1220000000,0.3866067661818733,0.7340113443869122,0.0336132190574001,-0.838050019970143,0.017574880695612968,-9.857626205229785,0.4194588834820783,0.7603083404565241,0.05796503839851624,-0.7367837885545856,-0.00501544112801607,-9.889697281159334
1230000000,0.45176081180999444,0.7037735046685598,0.1040813974296449,-0.6860349156679075,-0.04444655990888106,-9.877118582005146,0.4470403698837395,0.7393084308557765,0.06245767136293506,-0.7262431260071927,-0.03895956919524003,-9.920268929261399
1240000000,0.4565302683555527,0.6549631876346175,0.01464182043746614,-0.5861988576458237,-0.003942245813082248,-9.894131333866607,0.46185907465897735,0.6806146485456794,0.05238935332392898,-0.6465229031186374,-0.01687165384082313,-9.931898918036826
1250000000,0.4300432164774319,0.6692800175259463,-0.04393158874847292,-0.7220631475159831,0.13683611396644044,-10.097911498115497,0.47570560016493957,0.6796211091738626,0.0018016496085463615,-0.6949897033246424,0.0333309006493166,-9.97665929841592
1260000000,0.5498799480129215,0.8336136974643618,-0.05804651996968768,-0.7338407932539055,0.13646000166773398,-9.996301382647562,0.4794348520020161,0.7306350976546248,-0.02308506469041078,-0.7005689039291783,0.07246944420741033,-10.014816257147082
1270000000,0.48542466610876384,0.7317082300369577,-0.001996210022100318,-0.6682106835641093,-0.06221774050332766,-9.902183264514074,0.49273823031505376,0.7491878191099272,-0.020318537419662934,-0.7274580242441604,-0.024125633113868394,-9.941861325200207
1280000000,0.6967937042031458,0.7363450259718002,0.04408215068818421,-0.6916574387209468,0.020187861085925556,-9.959859540613953,0.5487291045472102,0.7254713661030028,-0.003247435693696437,-0.7296616013406481,-0.014534581528015187,-9.922385285074682
1290000000,0.5494021440423358,0.5890410529271936,-0.02797953148767366,-0.6098443363402886,0.011559332833734141,-10.087848333287111,0.5495585624306492,0.6932732321128531,-0.012000833926884965,-0.680037378261819,-0.032688236647281065,-9.959967504575435
1300000000,0.5690462160345867,0.5945756822583987,-0.0783532893245874,-0.8488610150258241,-0.010349696583443431,-9.843978143214597,0.5104672077002251,0.6445674756149203,-0.001802738550208221,-0.7556390446251758,0.02911546136693595,-9.918471231167176
1310000000,0.4473897759529613,0.5412892495156463,-0.11702938607906158,-0.6862652609284117,-0.08966495571675957,-9.873309946151023,0.4850113724871257,0.6086673804690276,-0.06175831207345167,-0.8172696987919981,-0.0720485750831941,-9.84705505497179
1320000000,0.34870055381940596,0.639626404516179,-0.08944188388444221,-0.8170448570328933,-0.017112690514512103,-9.929827051596998,0.41790979248378973,0.595549511341554,-0.0994482668717594,-0.7778477831322006,-0.047199075120566286,-9.912174732603757
1330000000,0.35050518933153024,0.649448476324086,-0.05544438761678934,-0.7538193202089858,-0.09723022445632451,-9.893891630396803,0.39222766269244813,0.629074117454463,-0.08638197897500101,-0.7834740261384714,-0.03394800607298716,-9.932028131945378
1340000000,0.3370195329073412,0.6234005813997822,-0.16467812303663984,-0.8002114880956361,-0.0048700063942327815,-9.878431013695351,0.3951140640410251,0.58280158391456,-0.109924920544827,-0.8107464292054761,-0.06725575298507833,-9.9215909076269
1350000000,0.352209420331005,0.5802269355721686,-0.1439264513875306,-0.7147801627694832,0.09555192811035818,-9.845899355485761,0.3737599391689479,0.5334349008261978,-0.10586797354764756,-0.7844214121302489,0.007973306488609454,-9.887029831513798
1360000000,0.2869569022769536,0.5267113786915343,-0.09618998797381875,-0.6955166370251809,0.17535740395074817,-9.86090958091993,0.3338761424990806,0.5277458989183619,-0.08062820842401655,-0.7709622400114223,0.10440652592298232,-9.879890568048584
1370000000,0.43512193681036515,0.35059545786577756,-0.17646447093939643,-0.8186645805810988,0.044158895661684724,-10.046241250875143,0.3401320419037853,0.4519521114046571,-0.10558404821345167,-0.7689301902167164,0.06551198837615607,-9.970742995113756
1380000000,0.3688047249635942,0.49431897536045105,0.016289028031919617,-0.7648743122244386,-0.007258392042114452,-9.811170497417322,0.35706660693951137,0.4447833320450969,-0.08041193001098544,-0.7567226672627984,-0.0017666159054783165,-9.939648287418901
1390000000,0.34713617403397484,0.45612660152770934,0.01004396977432935,-0.7801770082497471,0.06670032385778192,-9.784076006491857,0.3513491340495237,0.41599832019383287,-0.06361544340146923,-0.7404672328852004,0.01803812731237699,-9.871616154374367
1400000000,0.26179816075372647,0.22454183457400703,-0.11572481343472386,-0.7641095018416708,0.06836792625606407,-9.914529488321499,0.33206069376321207,0.31345370475957235,-0.0861944961515925,-0.7950670297480038,0.060889705119059875,-9.904260995876879
1410000000,0.3365460944958641,0.22369940323621915,-0.11757382282986079,-0.794687792621356,0.026223300137976975,-9.9047328527555,0.3250548450968063,0.27358936744639994,-0.09878997592984622,-0.7938755472148056,0.0555785917005597,-9.907987886694785
1420000000,0.25017505592106937,0.16031065084877752,-0.1776912789163173,-0.5491593810735502,-0.007923883422522045,-9.955613090649063,0.3033725576412885,0.22053321969860276,-0.12759155927707994,-0.7257759768171224,-0.0035477891068015823,-9.937924539857113
1430000000,0.28792636901129864,0.13905747325074552,-0.06918642210736332,-0.7478938397922603,0.010861827920340222,-9.887620284917958,0.23967730175177068,0.19798068136309932,-0.11057738550024174,-0.7302301610731075,-0.005526872507742814,-9.921246095282894
1440000000,0.21242567985098001,0.17694264268841245,-0.11644339407574354,-0.7127667452548483,-0.018496355019602798,-9.865388474365037,0.2041683212864257,0.18092892533703897,-0.12864473364293338,-0.7206913600935986,-0.006352981263321195,-9.909135273242185
1450000000,0.15965632031979443,0.13684028230093578,-0.17511602404976906,-0.7019961734447673,-0.005260317017279539,-9.944225110232125,0.16760916939410997,0.13055168276841805,-0.11116309863005026,-0.7056497638552099,0.019081754697848972,-9.919095035108286
1460000000,0.21323766733794897,0.07406219881227408,0.05498998089069461,-0.8154834152790335,-0.059626193098933834,-9.85958945739037,0.17817278045439405,0.1127321021972364,-0.07032653597801586,-0.7316901181674809,-0.002508171708254958,-9.904592406131501
1470000000,0.31739508665899907,0.0185981233163291,-0.17897539740133456,-0.8457487400814743,-0.029240059769900406,-9.82284495574124,0.19354231195287033,0.07236415640260536,-0.1083190350370127,-0.7705078630214586,-0.014404149656185021,-9.890121529413229
1480000000,0.14264185621367323,-0.0013650702945312149,0.01694481413418225,-0.8050191521869432,0.029833521774685005,-10.01636658972539,0.16349718970539723,0.05711258550425217,-0.05951201806470738,-0.7643529268939933,0.030517981019271626,-9.902006705979483
1490000000,0.019353973480489943,-0.00701851908501633,-0.08432696435095027,-0.7551533187980805,-0.03725366959397555,-9.775149892418968,0.073134262858811,0.0014327517286417627,-0.07030942028329429,-0.7697011321568421,0.016629121984402917,-9.898460793673102
1500000000,-0.028727017432528663,-0.07643975192269666,-0.09547936595935475,-0.694395448336375,-0.0934543276108692,-9.902004328679107,0.020906495746970136,-0.052271042639076976,-0.08298716825724772,-0.7172360505948108,-0.02183205580606121,-9.868563550901431
1510000000,0.03557862236633441,-0.09213419836334999,0.026691238262306703,-0.7661742842829595,-0.00533487872923809,-9.938634261315764,0.016067268624317142,-0.06935492166064475,-0.05541340902852444,-0.7232027657167904,-0.026639727038165528,-9.889349476073916
1520000000,0.030757014646774536,-0.03986161179022063,-0.14069706998192116,-0.8418634334212659,0.07409269422833592,-9.843469452450659,0.03133049559161595,-0.08760069687856312,-0.0731281260190643,-0.7660278453542776,0.0343450922658545,-9.87312846662156
1530000000,-0.012786858961613162,-0.15215431058164977,-0.040329195136117275,-0.8471605528368682,-0.0419413222216075,-9.86899465523253,-0.019775021134723195,-0.10122441985408187,-0.09382505195713459,-0.7538295393375682,0.07205446394742608,-9.873325743219102
1540000000,-0.04439324724367064,-0.249248517622651,-0.037077550530472084,-0.7389530817352875,0.03763561798612973,-9.794807997391997,-0.023093094583918096,-0.14094845847835907,-0.04819049076142885,-0.7272264591284362,0.0029535624617054845,-9.86616534469404
1550000000,-0.14441126139807964,-0.24556318447514733,-0.06848455263689056,-0.7119743619576051,-0.044894240545536965,-9.833984931465173,-0.0683493093847497,-0.18070103976916677,-0.03415464649888632,-0.7378060351985429,-0.018057536316482124,-9.835958600562396
1560000000,-0.1136966521006809,-0.19071329703315085,-0.029997024354652253,-0.6812000509381854,-0.13463490922578167,-9.835394656915517,-0.09001750585668958,-0.1885131186246685,-0.03602482916405354,-0.7202719062398818,-0.054282337835015786,-9.835451457545055
1570000000,-0.20057312826495488,-0.21285157744110844,-0.010727733013954417,-0.7498681960666016,0.1022442418497835,-9.822306748291432,-0.13910999457162665,-0.19626812205872052,-0.012002465189830683,-0.7082011169653072,-0.033958114952575225,-9.85387035017773
1580000000,-0.1449623695329543,-0.15448710528027185,0.013100223446270438,-0.7459812257729175,-0.00969594927538671,-9.92348996875978,-0.16981623824100806,-0.18480746690086597,-0.025938534373387532,-0.7144280662549525,0.05202490820708474,-9.869761059049983
1590000000,-0.07104111113454942,-0.23744261917962337,-0.07252829173837874,-0.7753596778591172,-0.14083775779322957,-9.845753589409307,-0.11902028737409674,-0.21313660104739068,-0.038494680421749555,-0.7366764856200322,-0.009052153571703421,-9.889737113104632
1600000000,-0.19616055234969768,-0.2234355391061901,-0.08072938196941118,-0.6853377239721472,0.07260390464118573,-9.707097532277581,-0.1441754002990245,-0.2602294757692406,-0.05929211203921393,-0.6949897271466523,0.01568816739957445,-9.82747672099991
1610000000,-0.24584984605052107,-0.25783355258428114,-0.06750743216325022,-0.6348968126741951,0.12960223284050829,-9.841085932574709,-0.18022539442926444,-0.2574719181849959,-0.06757772878344903,-0.6764245733938565,0.05474980163814441,-9.814372377469631
1620000000,-0.10868697236597005,-0.27601038197369443,-0.045417482767759164,-0.6922197061811555,0.1152129467935572,-9.819737431176991,-0.15864645404725256,-0.2819093040093399,-0.06018003599880964,-0.7125160540901716,0.04827251971734563,-9.816743028346574
1630000000,-0.26345306048390055,-0.32672314334174857,0.0674741156301576,-0.7645809763142835,0.11836625110122873,-9.960154203512396,-0.18453464478799014,-0.3091454114678972,0.0033729027567751813,-0.7290654515248353,0.022778109766609586,-9.91349140689024
1640000000,-0.1183719167962607,-0.2824448777171634,0.03156600424829989,-0.6701274466676715,0.007118978800820429,-9.812439743521944,-0.1490553687370397,-0.2763289411224081,0.020007025995842538,-0.7111406748948942,0.00030407848834955974,-9.857606307989183
1650000000,-0.11437638958761201,-0.28647664484179003,-0.08167134748516393,-0.7888221239427574,-0.13691914280787226,-9.85027589717147,-0.15791689984661506,-0.29461174620984676,-0.002991539073319012,-0.7095352434003757,-0.032604959707440914,-9.830387660288222
1660000000,-0.17956619266430868,-0.2701092699022924,-0.0018401514418457145,-0.7400123537576042,-0.0637711626143879,-9.843718863408252,-0.1922258479859666,-0.25243669817892844,-0.00934525003620994,-0.7379924848073782,-0.07547699780718402,-9.809324197871831
1670000000,-0.3548421130005815,-0.30803582417707165,-0.053187858218662225,-0.8464519379065452,0.03500891135916339,-9.769804018008546,-0.22990141244978252,-0.27144715279536613,-0.011316736990669391,-0.7842152110133087,-0.0628061971805826,-9.790675837613376
1680000000,-0.10280359513593686,-0.33057019960499406,-0.08921738650139321,-0.6972256451497021,-0.06886327762364398,-9.71637332960599,-0.18789884381482305,-0.308416750467015,-0.012485352804305676,-0.7529802425272382,-0.04356276919583437,-9.737300409514301
1690000000,-0.18738892562288256,-0.23023691959686676,0.007922517929767326,-0.8453842612307937,0.0012765996060575043,-9.913476577680715,-0.1958318948672536,-0.24785665551172245,0.007051177850811092,-0.7772654810041919,-0.021747090299293833,-9.81743541507534
1700000000,-0.21136708865327367,-0.29184173119476015,0.03345530321198174,-0.7905738194107081,-0.09884065886240369,-9.886303677723362,-0.2129877204008001,-0.25823169835615023,0.016795150363377323,-0.7774130088455609,-0.018582563511101175,-9.873418260377482
1710000000,-0.19974867521380096,-0.305745578114996,0.05852852548577434,-0.6603285606324835,-0.0432693484172888,-9.809785991979878,-0.18734440715711376,-0.2649207720033992,0.02564150628206091,-0.7541027697710017,-0.030618212169008258,-9.834580926913617
1720000000,-0.2707330896963071,-0.176850711037721,-0.01638736479873809,-0.6990948090346532,0.05350063811665247,-9.86019365595893,-0.22596226681148657,-0.23839321506173114,0.027493393425918784,-0.7236038633459807,0.01819719387428765,-9.839514800878902
1730000000,-0.2519293079296982,-0.1686327655122376,0.1217461003734931,-0.6762646032499326,-0.10477548238056411,-9.975848180751742,-0.21329059964165065,-0.21676652123861237,0.05374937361439645,-0.695043475499258,-0.02588606694413883,-9.867963717677831
1740000000,-0.19763033950042927,-0.23221639475326045,0.05880903036108685,-0.812071440781962,-0.021995686985823885,-9.776309050201865,-0.19810902845392056,-0.1907608249952281,0.051049650829384174,-0.6943055849635611,-0.04809331322438172,-9.842323983931186
1750000000,-0.1900860153848384,-0.17789490278153341,0.02718326631478115,-0.7875752729589012,-0.007883411358471776,-9.852729845501445,-0.18051818494492594,-0.18820959928814782,0.03132214356572662,-0.7149924746053563,-0.0351824154837965,-9.775238582555106
1760000000,-0.00891099027473477,-0.11275295661362159,0.039128225203214836,-0.6656758343779481,0.09847746536293403,-9.862196383930254,-0.14747126097825827,-0.15620712234707648,0.053909295715289796,-0.7421420632631353,0.01528408474551704,-9.788776171573055
1770000000,-0.09190559436362453,-0.1380198633345128,0.043052513856638955,-0.7623079822622318,0.05721797907106036,-9.732195593266399,-0.10865166670504445,-0.1499085224101507,0.06925077664720886,-0.7510423251739181,0.03148353678360626,-9.795616013587766
1780000000,-0.12124002350422075,-0.1376787999674162,-0.098867444035207,-0.697026039999036,-0.023089218958314797,-9.772093401654528,-0.11966825707455028,-0.12209680063517322,0.030405135062920034,-0.7272859668731778,-0.014418000670219002,-9.794138683727457
1790000000,-0.17506008320617478,-0.08995806729560465,0.033837684851093536,-0.8913104493815085,-0.09982243753323594,-9.778329310678524,-0.160277270775206,-0.15763030695497446,0.043638609708050564,-0.8160753732198776,-0.0540454871126758,-9.795371905403414
1800000000,-0.19052150565471124,-0.08339396004671298,0.03790198824236253,-0.7908802550383488,-0.11463074713482975,-9.805242942572328,-0.19792369217068173,-0.15840669153584538,0.03347209926981815,-0.7702552967080343,-0.06392299907999502,-9.852956922583338
1810000000,-0.16111536526781928,-0.05313239184493511,0.07015252624648344,-0.7101370933774287,0.08356000421525342,-9.777683614033622,-0.18375174224511584,-0.09142819965797724,0.034610167993420496,-0.6938839661319715,-0.049523017676815516,-9.814086262375277
1820000000,-0.1574947513910033,-0.008969101070381479,0.03797786473085411,-0.8671308671074882,-0.09048964509550417,-9.693757037789878,-0.1661830371735501,-0.01744793015861238,0.05343152644123732,-0.7710315710793881,-0.029964610449369503,-9.7382518740147
1830000000,-0.14492982963109752,-0.04362550256036305,0.07307161732600864,-0.6960065442022341,0.03378214462612712,-9.613345238125257,-0.17498032593484672,-0.028313246688666624,0.047801445771692,-0.7565891669393406,-0.04894530692397395,-9.707463965733368
1840000000,-0.08120918367462956,0.012267813110220814,-0.00026642451187790933,-0.8204306223489456,-0.15096544875864326,-9.85161833483163,-0.14253485931728646,0.001450350422402426,0.04158130069147144,-0.778457127865243,-0.05199207531352724,-9.76352343418823
1850000000,-0.0686812496004624,-0.019438506073905827,-0.0062128329487173665,-0.793106900182502,0.0658320185410538,-9.78773554231699,-0.08273494965138034,-0.03780845558323821,-0.006304866293096278,-0.7851219445391057,-0.07142955311376188,-9.788694913461107
1860000000,-0.09225160224318926,0.05320985238757833,-0.06289685579295502,-0.7572055055928567,-0.006353486608316588,-9.71675667670021,-0.07819738263735598,-0.00916649662229423,-0.035080858746424574,-0.7515055415718686,-0.04656899805404387,-9.772654470859282
1870000000,-0.1160768652144297,0.0579679869329542,0.07928807885637713,-0.7072827941160893,-0.05623393827024747,-9.903941961165078,-0.09245973814167399,0.024935989149430057,0.02647017342140734,-0.7505810138484812,-0.013577521519982063,-9.804748432008353
1880000000,-0.012077583194460763,0.02688487741840144,0.05325474747122244,-0.766552899376448,-0.01686752544163076,-9.85841253998694,-0.057268854971804166,0.08476882580390775,0.03930090940808959,-0.7354754933107114,0.01293144471956596,-9.825664497584949
1890000000,-0.1635884760725686,0.10157558448814394,-0.023822365059595535,-0.7929664806050972,-0.004102364923026229,-9.83120614588738,-0.07475908992779258,0.09786082966229742,0.031176135357511212,-0.7439519675217633,-0.011888190370266533,-9.847830397016892
1900000000,0.030616519480070242,0.16473632499021731,0.07215599193773209,-0.7821065082724962,-0.015429417884815683,-9.84268250074933,-0.03377182466859269,0.10579684152141092,0.023263434276968552,-0.7665354857965884,-0.027659126514394335,-9.79011026390665
1910000000,-0.10992522292228557,0.07420140858195506,0.006339836487039995,-0.8747200010054351,-0.04056582378811097,-9.881892292208235,-0.03923812643582231,0.12771433486421851,0.0293269799557041,-0.7992601729995443,-0.030537386286784374,-9.822599600839569
1920000000,-0.089541311009381,0.11755862021725312,0.07017238782251592,-0.7403649681345181,-0.006908358131104949,-9.784028790787113,-0.09785549056718586,0.10953190322170053,0.04199401272326683,-0.781148971455536,-0.03521362228324414,-9.804751667657836
1930000000,-0.05821809778699731,0.2146106487158298,0.0005843154979228472,-0.7238601254270143,0.009558204281379462,-9.828908201768222,-0.07718575890492888,0.15131759539265596,0.015086631801199471,-0.7534743573336609,-0.04922366213302594,-9.807369035672581
1940000000,-0.03874325368513807,0.13478879138932767,-0.033067217569484594,-0.7262766945424662,0.10955443704359216,-9.676796918519502,-0.021116214798394112,0.1838615383838397,-0.015944659320443512,-0.7541696159181274,0.0019315487258418293,-9.76398833771894
1950000000,0.015724588879563912,0.11784012462460564,-0.0020995427482556903,-0.8404095824231931,-0.062158015883672736,-9.735821619118134,0.027339132925576576,0.16991351251917597,-0.028114705974452724,-0.7401828710471877,0.014645255031332861,-9.777355145468913
1960000000,0.02758074859539892,0.25721605922325047,0.0513557881997488,-0.6903320182345606,-0.08582730950395454,-9.873368432348292,-0.0033435262746105265,0.17308815161591973,0.002511226209938237,-0.7715503507356966,-0.027005110332825297,-9.816741133817846
1970000000,0.017595455373452917,0.17513265022689956,0.12361339760852987,-0.6720846518511634,0.10075680024719917,-9.905522773724579,0.020422135675030026,0.20071565402486427,0.048138237967058226,-0.719994203621346,0.06342612084675428,-9.850018826979923
1980000000,0.06509626283595435,0.2504440498162289,0.012644802605197535,-0.5878495333305667,-0.03578369755727409,-9.82505316266241,0.035018417363624176,0.2261946321400419,0.03630939906659603,-0.6606843596359836,0.027702618869978914,-9.823332071501847
1990000000,0.19397920407622565,0.16324616321378588,-0.07354045194937406,-0.608855764839034,-0.09431466525063628,-10.101264432728122,0.0881900771500267,0.2037239050395777,-0.005205889342118023,-0.6271630919707861,-0.036870795907312376,-9.91607556756821
2000000000,0.043711649525244645,0.16861338546262816,-0.05895245339306589,-0.758308719834036,0.006845432671331643,-9.893949534068248,0.11735403550149807,0.21395365234866273,-0.040731373247390394,-0.6961009481134159,0.01132731137685955,-9.874250893672686
